File: inputs/edxCalibration/edx_raw/2010/junho/31508 Ag.20100626140846.csv
"Sample    : 31508 Ag",
"Operator  : thiago",
"Comment  : cubatao-g-policarbonato",
"Group     : kerr2007ag180cal_lt",
"Date       : 2010-06-26 14:04:32",
"",
"Mesurement Condition",
"------------------------------------------------------------------------------------",
"Instrument : 700HS2   Atmosphere : Vac.   Collimator : 10(mm)   Spin : No",
"------------------------------------------------------------------------------------",
"Analyte               TG kV   uA      FI Acq.(keV)  Anal.(keV)  Time(sec)     DT(%)",
"------------------------------------------------------------------------------------",
"Na                    Rh 50  393-Auto Al  0 - 20    0.8 - 1.2   Live -  179   16",
"",
"<Profile>",
"Channel_info_start",
"Channel : Na",
"Points : 2048",
"Range : 0.000000 - 20.48",
"Step : 0.010000",
"Channel_info_end",
"0",
"0",
"0",
"0",
"0",
"0",
"0",
"0",
"0",
"0",
"0",
"0",
"0",
"0",
"0",
"12",
"53",
"47",
"56",
"44",
"55",
"47",
"51",
"39",
"40",
"50",
"49",
"46",
"52",
"41",
"56",
"50",
"39",
"40",
"57",
"56",
"55",
"32",
"41",
"61",
"39",
"47",
"49",
"52",
"56",
"53",
"56",
"51",
"48",
"47",
"55",
"55",
"62",
"62",
"63",
"82",
"45",
"73",
"89",
"120",
"154",
"177",
"211",
"189",
"146",
"136",
"117",
"102",
"120",
"114",
"146",
"145",
"121",
"108",
"113",
"93",
"99",
"99",
"94",
"76",
"100",
"74",
"78",
"74",
"69",
"72",
"70",
"90",
"93",
"97",
"66",
"83",
"74",
"80",
"72",
"62",
"113",
"99",
"119",
"182",
"203",
"170",
"143",
"118",
"101",
"80",
"74",
"60",
"68",
"66",
"75",
"61",
"70",
"70",
"96",
"57",
"87",
"95",
"85",
"87",
"113",
"122",
"106",
"133",
"119",
"116",
"158",
"197",
"264",
"376",
"449",
"540",
"610",
"592",
"504",
"414",
"361",
"363",
"382",
"403",
"449",
"472",
"568",
"798",
"1396",
"2574",
"4550",
"6594",
"8992",
"10281",
"10768",
"9009",
"7032",
"5063",
"4040",
"3864",
"4550",
"4973",
"5463",
"5143",
"4623",
"3815",
"2915",
"2349",
"1818",
"1439",
"1317",
"1302",
"1232",
"1153",
"994",
"731",
"591",
"534",
"477",
"523",
"580",
"569",
"505",
"467",
"618",
"707",
"1017",
"1288",
"1431",
"1509",
"1473",
"1226",
"951",
"662",
"427",
"302",
"190",
"143",
"119",
"118",
"112",
"129",
"147",
"184",
"206",
"181",
"204",
"192",
"129",
"104",
"75",
"70",
"50",
"51",
"46",
"46",
"51",
"44",
"36",
"41",
"64",
"44",
"55",
"40",
"52",
"64",
"69",
"82",
"88",
"85",
"87",
"69",
"88",
"82",
"96",
"87",
"73",
"84",
"75",
"76",
"68",
"72",
"68",
"62",
"47",
"61",
"77",
"74",
"61",
"78",
"77",
"56",
"58",
"73",
"47",
"55",
"50",
"69",
"61",
"69",
"61",
"66",
"81",
"61",
"80",
"76",
"97",
"90",
"69",
"93",
"104",
"104",
"117",
"122",
"123",
"119",
"109",
"106",
"126",
"96",
"117",
"108",
"110",
"85",
"100",
"85",
"83",
"88",
"85",
"87",
"83",
"78",
"78",
"68",
"101",
"84",
"90",
"95",
"95",
"87",
"109",
"86",
"99",
"89",
"121",
"105",
"122",
"141",
"148",
"142",
"173",
"185",
"171",
"167",
"210",
"199",
"217",
"235",
"229",
"185",
"240",
"243",
"262",
"271",
"252",
"256",
"259",
"268",
"253",
"231",
"223",
"220",
"189",
"186",
"204",
"190",
"186",
"178",
"202",
"173",
"160",
"170",
"174",
"167",
"164",
"147",
"166",
"141",
"159",
"125",
"144",
"140",
"144",
"120",
"153",
"137",
"133",
"130",
"144",
"131",
"120",
"140",
"133",
"126",
"110",
"152",
"124",
"131",
"138",
"119",
"137",
"131",
"135",
"138",
"142",
"138",
"144",
"148",
"137",
"132",
"137",
"145",
"138",
"119",
"159",
"138",
"161",
"158",
"173",
"158",
"130",
"133",
"126",
"149",
"144",
"168",
"143",
"156",
"156",
"160",
"171",
"169",
"204",
"182",
"211",
"226",
"206",
"204",
"207",
"205",
"207",
"197",
"192",
"185",
"205",
"195",
"206",
"213",
"227",
"198",
"242",
"206",
"245",
"190",
"235",
"203",
"220",
"206",
"242",
"215",
"258",
"227",
"290",
"244",
"280",
"267",
"279",
"243",
"257",
"244",
"216",
"184",
"209",
"175",
"211",
"153",
"165",
"178",
"161",
"155",
"174",
"174",
"185",
"131",
"143",
"156",
"147",
"161",
"173",
"155",
"165",
"162",
"156",
"167",
"166",
"165",
"170",
"170",
"186",
"189",
"184",
"172",
"183",
"178",
"173",
"182",
"180",
"193",
"209",
"179",
"159",
"211",
"187",
"181",
"180",
"175",
"157",
"179",
"177",
"173",
"175",
"164",
"178",
"161",
"184",
"172",
"190",
"170",
"205",
"157",
"195",
"180",
"181",
"198",
"181",
"179",
"198",
"157",
"164",
"193",
"177",
"152",
"154",
"177",
"166",
"132",
"170",
"143",
"165",
"135",
"135",
"149",
"153",
"133",
"147",
"145",
"140",
"150",
"144",
"138",
"152",
"137",
"123",
"143",
"128",
"150",
"146",
"144",
"161",
"155",
"134",
"154",
"148",
"144",
"162",
"143",
"172",
"158",
"126",
"126",
"147",
"165",
"156",
"143",
"159",
"174",
"144",
"183",
"167",
"155",
"185",
"160",
"165",
"143",
"165",
"170",
"162",
"180",
"189",
"172",
"197",
"155",
"171",
"153",
"174",
"159",
"193",
"149",
"143",
"145",
"168",
"174",
"148",
"166",
"170",
"145",
"156",
"156",
"154",
"144",
"156",
"158",
"165",
"133",
"161",
"167",
"160",
"133",
"157",
"130",
"132",
"142",
"149",
"150",
"145",
"124",
"162",
"154",
"141",
"147",
"164",
"134",
"162",
"125",
"135",
"142",
"132",
"120",
"120",
"133",
"133",
"129",
"134",
"147",
"162",
"161",
"156",
"129",
"137",
"143",
"123",
"118",
"126",
"126",
"138",
"123",
"143",
"117",
"134",
"135",
"129",
"141",
"113",
"124",
"123",
"122",
"125",
"122",
"116",
"124",
"130",
"136",
"102",
"128",
"118",
"145",
"123",
"118",
"144",
"120",
"152",
"124",
"138",
"146",
"112",
"132",
"138",
"108",
"110",
"121",
"132",
"145",
"131",
"147",
"126",
"137",
"145",
"137",
"130",
"131",
"119",
"118",
"147",
"137",
"137",
"142",
"130",
"136",
"113",
"124",
"142",
"134",
"128",
"123",
"108",
"134",
"117",
"140",
"114",
"133",
"107",
"132",
"113",
"122",
"122",
"124",
"128",
"136",
"121",
"130",
"99",
"143",
"132",
"106",
"109",
"117",
"123",
"125",
"142",
"118",
"109",
"112",
"106",
"135",
"134",
"124",
"120",
"119",
"107",
"132",
"105",
"106",
"125",
"117",
"123",
"104",
"128",
"125",
"116",
"97",
"119",
"134",
"107",
"102",
"120",
"111",
"125",
"102",
"101",
"108",
"96",
"112",
"118",
"135",
"106",
"99",
"116",
"118",
"99",
"130",
"119",
"88",
"106",
"101",
"110",
"100",
"102",
"102",
"110",
"110",
"101",
"98",
"102",
"81",
"107",
"92",
"104",
"102",
"101",
"107",
"111",
"99",
"99",
"105",
"123",
"131",
"93",
"132",
"96",
"95",
"96",
"104",
"105",
"102",
"98",
"101",
"118",
"90",
"107",
"83",
"106",
"89",
"95",
"83",
"100",
"105",
"108",
"105",
"87",
"93",
"112",
"89",
"107",
"95",
"109",
"105",
"94",
"105",
"97",
"98",
"84",
"101",
"121",
"105",
"101",
"94",
"86",
"88",
"113",
"88",
"88",
"93",
"97",
"82",
"106",
"92",
"106",
"80",
"105",
"78",
"102",
"98",
"111",
"78",
"92",
"111",
"92",
"83",
"77",
"99",
"81",
"81",
"97",
"89",
"101",
"76",
"87",
"86",
"101",
"105",
"111",
"95",
"93",
"88",
"96",
"94",
"97",
"86",
"92",
"132",
"118",
"80",
"96",
"101",
"120",
"100",
"83",
"104",
"90",
"92",
"102",
"105",
"94",
"83",
"102",
"107",
"98",
"102",
"97",
"90",
"101",
"111",
"108",
"100",
"85",
"108",
"112",
"96",
"93",
"82",
"118",
"100",
"102",
"90",
"94",
"81",
"86",
"84",
"107",
"89",
"108",
"99",
"112",
"101",
"101",
"107",
"107",
"92",
"116",
"105",
"137",
"107",
"117",
"109",
"113",
"102",
"145",
"120",
"136",
"114",
"110",
"129",
"121",
"145",
"140",
"142",
"178",
"157",
"150",
"168",
"175",
"211",
"191",
"207",
"239",
"214",
"261",
"273",
"324",
"307",
"312",
"335",
"403",
"402",
"409",
"436",
"503",
"448",
"554",
"554",
"538",
"557",
"569",
"584",
"671",
"576",
"573",
"557",
"556",
"570",
"529",
"441",
"483",
"427",
"380",
"390",
"365",
"375",
"329",
"298",
"314",
"258",
"261",
"244",
"266",
"197",
"181",
"213",
"177",
"158",
"167",
"138",
"159",
"132",
"144",
"150",
"154",
"181",
"183",
"178",
"209",
"238",
"239",
"269",
"316",
"317",
"335",
"315",
"394",
"360",
"315",
"340",
"342",
"302",
"273",
"249",
"239",
"187",
"183",
"170",
"150",
"111",
"105",
"118",
"89",
"90",
"98",
"87",
"247093",
"Channel_info_start",
"Channel : Mg",
"Points : 0",
"Range : 0.000000 - 0.000000",
"Step : 0.010000",
"Channel_info_end",
"Channel_info_start",
"Channel : Al",
"Points : 0",
"Range : 0.000000 - 0.000000",
"Step : 0.010000",
"Channel_info_end",
"Channel_info_start",
"Channel : Si",
"Points : 0",
"Range : 0.000000 - 0.000000",
"Step : 0.010000",
"Channel_info_end",
"Channel_info_start",
"Channel : P ",
"Points : 0",
"Range : 0.000000 - 0.000000",
"Step : 0.010000",
"Channel_info_end",
"Channel_info_start",
"Channel : S ",
"Points : 0",
"Range : 0.000000 - 0.000000",
"Step : 0.010000",
"Channel_info_end",
"Channel_info_start",
"Channel : Cl",
"Points : 0",
"Range : 0.000000 - 0.000000",
"Step : 0.010000",
"Channel_info_end",
"Channel_info_start",
"Channel : K ",
"Points : 0",
"Range : 0.000000 - 0.000000",
"Step : 0.010000",
"Channel_info_end",
"Channel_info_start",
"Channel : Ca",
"Points : 0",
"Range : 0.000000 - 0.000000",
"Step : 0.010000",
"Channel_info_end",
"Channel_info_start",
"Channel : Ti",
"Points : 0",
"Range : 0.000000 - 0.000000",
"Step : 0.010000",
"Channel_info_end",
"Channel_info_start",
"Channel : V ",
"Points : 0",
"Range : 0.000000 - 0.000000",
"Step : 0.010000",
"Channel_info_end",
"Channel_info_start",
"Channel : Cr",
"Points : 0",
"Range : 0.000000 - 0.000000",
"Step : 0.010000",
"Channel_info_end",
"Channel_info_start",
"Channel : Mn",
"Points : 0",
"Range : 0.000000 - 0.000000",
"Step : 0.010000",
"Channel_info_end",
"Channel_info_start",
"Channel : Fe",
"Points : 0",
"Range : 0.000000 - 0.000000",
"Step : 0.010000",
"Channel_info_end",
"Channel_info_start",
"Channel : Cu",
"Points : 0",
"Range : 0.000000 - 0.000000",
"Step : 0.010000",
"Channel_info_end",
"Channel_info_start",
"Channel : Zn",
"Points : 0",
"Range : 0.000000 - 0.000000",
"Step : 0.010000",
"Channel_info_end",
"Channel_info_start",
"Channel : Sr",
"Points : 0",
"Range : 0.000000 - 0.000000",
"Step : 0.010000",
"Channel_info_end",
"Channel_info_start",
"Channel : Pb",
"Points : 0",
"Range : 0.000000 - 0.000000",
"Step : 0.010000",
"Channel_info_end",
"",
"Qualitative Result",
"--------------------------------------------------------------------------------",
"Element :  Mg, P , Cl, Cd, Ca, Zn, Rh",
"",
"Peak List",
"--------------------------------------------------------------------------------",
"Channel               Line        keV     Net Int.(cps/uA)",
"--------------------------------------------------------------------------------",
"Na                    MgKa         1.24     0.026",
"                      ----         1.40     0.013",
"                      P Ka         2.00     0.021",
"                      ClKa         2.64     0.069",
"                      ----         2.99     1.914",
"                      CdLa         3.16     0.957",
"                      CdLb1        3.38     0.141",
"                      CdLb2        3.52     0.046",
"                      CdLg1        3.70     0.048",
"                      CaKa         3.70     0.208",
"                      CaKb         4.03     0.022",
"                      ----         6.46     0.035",
"                      ZnKa         8.64     0.030",
"                      RhKaC       19.21     0.138",
"                      ----        19.47     0.057",
"                      RhKa        20.09     0.084",
"--------------------------------------------------------------------------------",
"",
"Quantitative Result",
"--------------------------------------------------------------------------------",
"Analyte               Result             Std.Dev. Proc.-Calc. Line Intensity(cps/uA)",
"--------------------------------------------------------------------------------",
"====[No. 1 Layer]====< Layer1               >===============================",
"Layer1                   8.660 ug/cm2    -------- Flux       -------- --------",
"Mg                       8.660 ug/cm2    -------- ********** -------- --------",