File: inputs/edxCalibration/edx_raw/2010/junho/Aa 31508.20100525235801.csv
"Sample    : Aa 31508",
"Operator  : luisf",
"Comment  : cubatao-g-policarbonato",
"Group     : kerr2007ag180cal_lt",
"Date       : 2010-05-25 23:53:50",
"",
"Mesurement Condition",
"------------------------------------------------------------------------------------",
"Instrument : 700HS2   Atmosphere : Vac.   Collimator : 10(mm)   Spin : No",
"------------------------------------------------------------------------------------",
"Analyte               TG kV   uA      FI Acq.(keV)  Anal.(keV)  Time(sec)     DT(%)",
"------------------------------------------------------------------------------------",
"Na                    Rh 50  360-Auto Al  0 - 20    0.8 - 1.2   Live -  179   15",
"",
"<Profile>",
"Channel_info_start",
"Channel : Na",
"Points : 2048",
"Range : 0.000000 - 20.48",
"Step : 0.010000",
"Channel_info_end",
"0",
"0",
"0",
"0",
"0",
"0",
"0",
"0",
"0",
"0",
"0",
"0",
"0",
"0",
"0",
"15",
"52",
"36",
"53",
"40",
"55",
"54",
"49",
"42",
"34",
"41",
"43",
"55",
"41",
"51",
"55",
"35",
"51",
"44",
"39",
"37",
"54",
"39",
"50",
"34",
"40",
"49",
"56",
"41",
"51",
"56",
"46",
"50",
"50",
"51",
"53",
"46",
"55",
"52",
"44",
"63",
"64",
"65",
"92",
"125",
"141",
"211",
"198",
"193",
"177",
"114",
"91",
"88",
"89",
"109",
"125",
"135",
"133",
"111",
"90",
"87",
"88",
"79",
"93",
"67",
"89",
"74",
"88",
"75",
"78",
"72",
"70",
"74",
"87",
"83",
"73",
"67",
"79",
"57",
"69",
"87",
"77",
"100",
"140",
"152",
"171",
"153",
"132",
"111",
"88",
"79",
"70",
"68",
"53",
"47",
"65",
"62",
"52",
"55",
"79",
"73",
"82",
"103",
"78",
"85",
"82",
"70",
"103",
"92",
"122",
"116",
"154",
"200",
"247",
"345",
"427",
"475",
"545",
"527",
"503",
"395",
"324",
"321",
"345",
"334",
"402",
"386",
"547",
"774",
"1364",
"2464",
"4364",
"6422",
"8606",
"9618",
"9513",
"8251",
"6430",
"4501",
"3568",
"3538",
"4098",
"4656",
"5016",
"4899",
"4199",
"3374",
"2643",
"2015",
"1584",
"1352",
"1284",
"1141",
"1126",
"956",
"853",
"703",
"555",
"460",
"446",
"497",
"488",
"457",
"446",
"455",
"535",
"685",
"917",
"1147",
"1366",
"1468",
"1336",
"1071",
"879",
"583",
"439",
"267",
"192",
"117",
"94",
"104",
"87",
"122",
"130",
"195",
"213",
"205",
"180",
"167",
"144",
"90",
"81",
"48",
"41",
"41",
"46",
"44",
"38",
"35",
"57",
"59",
"42",
"47",
"53",
"59",
"65",
"44",
"56",
"62",
"65",
"72",
"70",
"66",
"69",
"72",
"85",
"78",
"83",
"69",
"64",
"60",
"54",
"54",
"74",
"65",
"57",
"53",
"40",
"59",
"62",
"61",
"67",
"47",
"54",
"52",
"48",
"46",
"66",
"51",
"48",
"54",
"61",
"63",
"63",
"65",
"73",
"89",
"69",
"85",
"92",
"93",
"96",
"85",
"128",
"105",
"95",
"114",
"122",
"101",
"95",
"102",
"109",
"85",
"99",
"92",
"93",
"87",
"74",
"80",
"93",
"66",
"93",
"69",
"77",
"55",
"89",
"91",
"61",
"88",
"68",
"78",
"86",
"69",
"88",
"93",
"101",
"96",
"132",
"142",
"138",
"159",
"156",
"153",
"154",
"186",
"198",
"181",
"185",
"198",
"202",
"205",
"225",
"243",
"278",
"228",
"225",
"216",
"221",
"238",
"216",
"224",
"232",
"208",
"205",
"183",
"182",
"172",
"194",
"194",
"159",
"166",
"166",
"164",
"157",
"156",
"173",
"158",
"141",
"127",
"139",
"107",
"138",
"141",
"148",
"122",
"118",
"106",
"148",
"109",
"122",
"118",
"114",
"117",
"119",
"127",
"120",
"111",
"151",
"112",
"132",
"104",
"113",
"121",
"111",
"114",
"106",
"99",
"130",
"150",
"139",
"142",
"115",
"122",
"147",
"145",
"125",
"155",
"144",
"139",
"154",
"140",
"132",
"119",
"159",
"145",
"133",
"144",
"131",
"150",
"147",
"122",
"145",
"147",
"176",
"171",
"177",
"220",
"211",
"198",
"176",
"183",
"187",
"170",
"184",
"177",
"196",
"199",
"198",
"183",
"202",
"171",
"189",
"192",
"190",
"216",
"189",
"190",
"242",
"182",
"232",
"211",
"239",
"229",
"235",
"212",
"241",
"256",
"268",
"231",
"213",
"202",
"189",
"186",
"167",
"164",
"147",
"144",
"144",
"164",
"158",
"172",
"173",
"135",
"163",
"154",
"121",
"146",
"145",
"142",
"160",
"145",
"164",
"192",
"157",
"132",
"170",
"160",
"176",
"165",
"161",
"164",
"184",
"179",
"167",
"159",
"181",
"163",
"163",
"173",
"189",
"171",
"190",
"161",
"158",
"170",
"186",
"164",
"186",
"163",
"168",
"182",
"135",
"152",
"168",
"176",
"164",
"150",
"181",
"174",
"159",
"153",
"191",
"137",
"173",
"177",
"168",
"158",
"165",
"160",
"158",
"148",
"138",
"172",
"156",
"130",
"148",
"120",
"137",
"150",
"93",
"139",
"116",
"134",
"137",
"114",
"138",
"116",
"165",
"131",
"120",
"108",
"150",
"111",
"133",
"129",
"135",
"170",
"143",
"135",
"143",
"119",
"148",
"160",
"143",
"145",
"166",
"133",
"150",
"134",
"144",
"137",
"142",
"137",
"150",
"163",
"124",
"128",
"141",
"159",
"152",
"157",
"144",
"147",
"171",
"158",
"157",
"150",
"151",
"144",
"157",
"146",
"147",
"135",
"145",
"176",
"159",
"146",
"167",
"154",
"174",
"145",
"157",
"144",
"164",
"140",
"155",
"135",
"131",
"144",
"154",
"129",
"168",
"151",
"121",
"144",
"138",
"141",
"155",
"147",
"140",
"128",
"139",
"142",
"137",
"153",
"130",
"122",
"141",
"127",
"150",
"148",
"148",
"141",
"140",
"121",
"113",
"119",
"159",
"127",
"134",
"150",
"127",
"114",
"159",
"140",
"145",
"112",
"120",
"150",
"103",
"115",
"121",
"122",
"134",
"109",
"115",
"132",
"129",
"109",
"126",
"117",
"130",
"130",
"124",
"129",
"159",
"104",
"119",
"134",
"109",
"114",
"131",
"96",
"106",
"106",
"124",
"119",
"116",
"134",
"138",
"120",
"122",
"100",
"119",
"122",
"134",
"120",
"108",
"101",
"109",
"118",
"112",
"127",
"107",
"112",
"126",
"124",
"112",
"127",
"105",
"100",
"102",
"118",
"119",
"116",
"108",
"125",
"100",
"125",
"99",
"115",
"126",
"109",
"135",
"126",
"118",
"109",
"118",
"115",
"111",
"125",
"131",
"101",
"101",
"122",
"124",
"126",
"135",
"115",
"124",
"111",
"108",
"103",
"121",
"117",
"102",
"133",
"118",
"100",
"118",
"102",
"118",
"117",
"119",
"121",
"104",
"114",
"113",
"113",
"111",
"112",
"119",
"111",
"116",
"107",
"105",
"95",
"119",
"131",
"118",
"107",
"128",
"101",
"101",
"102",
"102",
"98",
"89",
"105",
"116",
"93",
"105",
"113",
"98",
"100",
"117",
"89",
"108",
"96",
"88",
"91",
"107",
"90",
"96",
"104",
"100",
"95",
"86",
"109",
"77",
"109",
"90",
"107",
"107",
"98",
"101",
"94",
"94",
"117",
"102",
"79",
"101",
"86",
"100",
"100",
"91",
"99",
"104",
"85",
"107",
"86",
"99",
"80",
"107",
"99",
"95",
"95",
"90",
"100",
"87",
"98",
"108",
"90",
"92",
"86",
"100",
"77",
"94",
"101",
"75",
"108",
"99",
"77",
"103",
"102",
"101",
"81",
"78",
"98",
"101",
"101",
"103",
"89",
"94",
"90",
"76",
"99",
"92",
"108",
"103",
"103",
"91",
"95",
"83",
"105",
"104",
"99",
"106",
"89",
"88",
"85",
"86",
"96",
"76",
"74",
"92",
"72",
"93",
"68",
"74",
"95",
"90",
"83",
"93",
"79",
"85",
"86",
"89",
"109",
"72",
"93",
"80",
"89",
"94",
"89",
"87",
"87",
"86",
"94",
"95",
"81",
"83",
"96",
"68",
"80",
"98",
"94",
"90",
"90",
"76",
"94",
"95",
"79",
"85",
"73",
"81",
"85",
"92",
"94",
"83",
"83",
"86",
"89",
"94",
"80",
"73",
"91",
"65",
"94",
"77",
"68",
"85",
"90",
"79",
"89",
"92",
"92",
"94",
"90",
"83",
"86",
"96",
"88",
"96",
"99",
"99",
"98",
"75",
"93",
"106",
"103",
"99",
"117",
"103",
"99",
"89",
"105",
"117",
"113",
"102",
"105",
"119",
"127",
"108",
"100",
"130",
"134",
"140",
"125",
"153",
"142",
"153",
"196",
"195",
"191",
"251",
"229",
"244",
"259",
"317",
"274",
"294",
"351",
"373",
"419",
"463",
"410",
"479",
"446",
"515",
"457",
"538",
"503",
"575",
"533",
"568",
"501",
"518",
"469",
"514",
"464",
"462",
"412",
"404",
"405",
"399",
"356",
"330",
"306",
"321",
"280",
"275",
"236",
"215",
"205",
"169",
"167",
"165",
"134",
"152",
"141",
"143",
"117",
"143",
"111",
"141",
"158",
"186",
"142",
"182",
"183",
"218",
"221",
"275",
"242",
"268",
"301",
"325",
"317",
"360",
"304",
"298",
"298",
"296",
"239",
"258",
"220",
"236",
"199",
"168",
"127",
"147",
"104",
"108",
"88",
"81",
"89",
"87",
"88",
"227225",
"Channel_info_start",
"Channel : Mg",
"Points : 0",
"Range : 0.000000 - 0.000000",
"Step : 0.010000",
"Channel_info_end",
"Channel_info_start",
"Channel : Al",
"Points : 0",
"Range : 0.000000 - 0.000000",
"Step : 0.010000",
"Channel_info_end",
"Channel_info_start",
"Channel : Si",
"Points : 0",
"Range : 0.000000 - 0.000000",
"Step : 0.010000",
"Channel_info_end",
"Channel_info_start",
"Channel : P ",
"Points : 0",
"Range : 0.000000 - 0.000000",
"Step : 0.010000",
"Channel_info_end",
"Channel_info_start",
"Channel : S ",
"Points : 0",
"Range : 0.000000 - 0.000000",
"Step : 0.010000",
"Channel_info_end",
"Channel_info_start",
"Channel : Cl",
"Points : 0",
"Range : 0.000000 - 0.000000",
"Step : 0.010000",
"Channel_info_end",
"Channel_info_start",
"Channel : K ",
"Points : 0",
"Range : 0.000000 - 0.000000",
"Step : 0.010000",
"Channel_info_end",
"Channel_info_start",
"Channel : Ca",
"Points : 0",
"Range : 0.000000 - 0.000000",
"Step : 0.010000",
"Channel_info_end",
"Channel_info_start",
"Channel : Ti",
"Points : 0",
"Range : 0.000000 - 0.000000",
"Step : 0.010000",
"Channel_info_end",
"Channel_info_start",
"Channel : V ",
"Points : 0",
"Range : 0.000000 - 0.000000",
"Step : 0.010000",
"Channel_info_end",
"Channel_info_start",
"Channel : Cr",
"Points : 0",
"Range : 0.000000 - 0.000000",
"Step : 0.010000",
"Channel_info_end",
"Channel_info_start",
"Channel : Mn",
"Points : 0",
"Range : 0.000000 - 0.000000",
"Step : 0.010000",
"Channel_info_end",
"Channel_info_start",
"Channel : Fe",
"Points : 0",
"Range : 0.000000 - 0.000000",
"Step : 0.010000",
"Channel_info_end",
"Channel_info_start",
"Channel : Cu",
"Points : 0",
"Range : 0.000000 - 0.000000",
"Step : 0.010000",
"Channel_info_end",
"Channel_info_start",
"Channel : Zn",
"Points : 0",
"Range : 0.000000 - 0.000000",
"Step : 0.010000",
"Channel_info_end",
"Channel_info_start",
"Channel : Sr",
"Points : 0",
"Range : 0.000000 - 0.000000",
"Step : 0.010000",
"Channel_info_end",
"Channel_info_start",
"Channel : Pb",
"Points : 0",
"Range : 0.000000 - 0.000000",
"Step : 0.010000",
"Channel_info_end",
"",
"Qualitative Result",
"--------------------------------------------------------------------------------",
"Element :  Mg, Al, P , Cl, Cd, Rh",
"",
"Peak List",
"--------------------------------------------------------------------------------",
"Channel               Line        keV     Net Int.(cps/uA)",
"--------------------------------------------------------------------------------",
"Na                    MgKa         1.23     0.027",
"                      AlKa         1.43     0.013",
"                      P Ka         2.00     0.019",
"                      ClKa         2.64     0.070",
"                      ----         2.98     1.923",
"                      CdLa         3.16     0.977",
"                      CdLb1        3.36     0.173",
"                      CdLb2        3.52     0.037",
"                      CdLg1        3.70     0.274",
"                      CdLg2        4.01     0.030",
"                      ----         6.21     0.023",
"                      CdLaSUM      6.36     0.037",
"                      ----         8.63     0.027",
"                      ----        18.98     0.087",
"                      RhKaC       19.20     0.140",
"                      ----        19.48     0.051",
"                      RhKa        20.07     0.081",
"--------------------------------------------------------------------------------",
"",
"Quantitative Result",
"--------------------------------------------------------------------------------",
"Analyte               Result             Std.Dev. Proc.-Calc. Line Intensity(cps/uA)",
"--------------------------------------------------------------------------------",
"====[No. 1 Layer]====< Layer1               >===============================",
"Layer1                   8.789 ug/cm2    -------- Flux       -------- --------",
"Mg                       8.789 ug/cm2    -------- ********** -------- --------",