File: inputs/edxCalibration/edx_raw/2010/junho/Ag 31508.20100611023115.csv
"Sample    : Ag 31508",
"Operator  : Luís",
"Comment  : cubatao-g-policarbonato",
"Group     : kerr2007ag180cal_lt",
"Date       : 2010-06-11 02:27:02",
"",
"Mesurement Condition",
"------------------------------------------------------------------------------------",
"Instrument : 700HS2   Atmosphere : Vac.   Collimator : 10(mm)   Spin : No",
"------------------------------------------------------------------------------------",
"Analyte               TG kV   uA      FI Acq.(keV)  Anal.(keV)  Time(sec)     DT(%)",
"------------------------------------------------------------------------------------",
"Na                    Rh 50  393-Auto Al  0 - 20    0.8 - 1.2   Live -  179   15",
"",
"<Profile>",
"Channel_info_start",
"Channel : Na",
"Points : 2048",
"Range : 0.000000 - 20.48",
"Step : 0.010000",
"Channel_info_end",
"0",
"0",
"0",
"0",
"0",
"0",
"0",
"0",
"0",
"0",
"0",
"0",
"0",
"0",
"1",
"21",
"30",
"44",
"49",
"59",
"57",
"48",
"49",
"54",
"41",
"45",
"49",
"48",
"52",
"51",
"45",
"57",
"44",
"45",
"41",
"45",
"48",
"50",
"59",
"42",
"42",
"38",
"65",
"51",
"56",
"63",
"64",
"52",
"53",
"44",
"58",
"46",
"60",
"56",
"51",
"75",
"73",
"82",
"93",
"105",
"164",
"195",
"203",
"187",
"166",
"114",
"123",
"102",
"109",
"101",
"149",
"136",
"140",
"123",
"122",
"76",
"85",
"75",
"89",
"80",
"71",
"76",
"86",
"82",
"77",
"62",
"87",
"73",
"80",
"82",
"73",
"81",
"63",
"68",
"80",
"73",
"90",
"110",
"132",
"146",
"170",
"152",
"148",
"130",
"88",
"76",
"78",
"76",
"69",
"66",
"77",
"60",
"63",
"65",
"86",
"80",
"72",
"85",
"82",
"83",
"84",
"106",
"108",
"125",
"132",
"148",
"160",
"206",
"282",
"399",
"451",
"550",
"611",
"594",
"505",
"396",
"345",
"321",
"340",
"369",
"419",
"425",
"565",
"890",
"1465",
"2786",
"4904",
"6908",
"9401",
"10281",
"10038",
"8497",
"6531",
"4633",
"4008",
"3915",
"4440",
"5016",
"5333",
"4996",
"4364",
"3649",
"2852",
"2119",
"1701",
"1420",
"1316",
"1243",
"1219",
"1073",
"925",
"697",
"580",
"569",
"542",
"464",
"569",
"540",
"508",
"512",
"534",
"742",
"1019",
"1271",
"1540",
"1525",
"1486",
"1133",
"893",
"590",
"430",
"257",
"199",
"106",
"112",
"111",
"85",
"105",
"170",
"186",
"203",
"187",
"197",
"137",
"118",
"97",
"63",
"52",
"52",
"42",
"51",
"34",
"53",
"50",
"39",
"46",
"49",
"53",
"58",
"59",
"57",
"58",
"66",
"73",
"62",
"76",
"82",
"76",
"100",
"73",
"97",
"84",
"56",
"74",
"86",
"62",
"66",
"64",
"53",
"59",
"74",
"48",
"50",
"59",
"57",
"69",
"58",
"69",
"60",
"53",
"63",
"58",
"54",
"53",
"59",
"57",
"65",
"65",
"68",
"69",
"87",
"83",
"85",
"84",
"82",
"103",
"93",
"101",
"117",
"86",
"130",
"106",
"124",
"102",
"119",
"101",
"95",
"105",
"91",
"86",
"100",
"91",
"87",
"74",
"97",
"86",
"83",
"81",
"76",
"97",
"87",
"93",
"86",
"89",
"99",
"95",
"100",
"99",
"85",
"112",
"108",
"107",
"129",
"131",
"139",
"129",
"156",
"163",
"182",
"182",
"184",
"196",
"213",
"208",
"218",
"224",
"246",
"264",
"233",
"268",
"258",
"244",
"260",
"242",
"230",
"252",
"220",
"217",
"221",
"194",
"194",
"175",
"175",
"191",
"181",
"176",
"164",
"166",
"172",
"167",
"161",
"138",
"144",
"163",
"150",
"131",
"109",
"143",
"138",
"145",
"126",
"99",
"152",
"125",
"103",
"125",
"105",
"130",
"119",
"139",
"108",
"131",
"125",
"111",
"122",
"143",
"130",
"137",
"135",
"138",
"117",
"161",
"147",
"157",
"151",
"149",
"139",
"148",
"132",
"144",
"159",
"145",
"132",
"182",
"162",
"168",
"129",
"115",
"149",
"161",
"167",
"150",
"154",
"174",
"172",
"171",
"173",
"178",
"171",
"187",
"199",
"193",
"194",
"200",
"196",
"217",
"225",
"188",
"198",
"204",
"173",
"160",
"199",
"196",
"203",
"210",
"224",
"236",
"232",
"235",
"224",
"221",
"215",
"224",
"199",
"221",
"243",
"229",
"258",
"267",
"247",
"261",
"256",
"220",
"257",
"221",
"203",
"193",
"172",
"185",
"139",
"149",
"175",
"158",
"173",
"167",
"190",
"173",
"147",
"158",
"188",
"152",
"166",
"148",
"174",
"185",
"150",
"164",
"146",
"190",
"185",
"163",
"171",
"150",
"172",
"174",
"181",
"174",
"166",
"178",
"172",
"167",
"200",
"158",
"192",
"187",
"162",
"191",
"209",
"195",
"191",
"163",
"199",
"154",
"200",
"169",
"179",
"168",
"168",
"164",
"186",
"199",
"186",
"193",
"188",
"173",
"190",
"145",
"176",
"178",
"158",
"203",
"187",
"145",
"176",
"137",
"171",
"166",
"168",
"157",
"151",
"146",
"162",
"163",
"123",
"143",
"133",
"132",
"109",
"154",
"115",
"138",
"158",
"132",
"159",
"156",
"146",
"154",
"143",
"126",
"148",
"145",
"156",
"155",
"157",
"166",
"146",
"146",
"148",
"152",
"167",
"127",
"170",
"154",
"145",
"155",
"170",
"126",
"158",
"170",
"149",
"190",
"155",
"147",
"142",
"169",
"171",
"151",
"168",
"152",
"169",
"148",
"197",
"150",
"136",
"167",
"176",
"163",
"172",
"149",
"166",
"170",
"173",
"152",
"176",
"149",
"138",
"160",
"150",
"131",
"167",
"151",
"148",
"133",
"137",
"168",
"172",
"170",
"173",
"158",
"158",
"146",
"133",
"139",
"148",
"145",
"150",
"148",
"146",
"136",
"144",
"138",
"129",
"139",
"107",
"114",
"152",
"120",
"158",
"136",
"146",
"158",
"152",
"140",
"151",
"134",
"147",
"140",
"150",
"125",
"137",
"164",
"124",
"133",
"140",
"135",
"150",
"143",
"123",
"132",
"151",
"125",
"134",
"132",
"137",
"136",
"146",
"151",
"131",
"151",
"135",
"114",
"125",
"135",
"137",
"131",
"129",
"150",
"122",
"133",
"115",
"120",
"108",
"133",
"107",
"136",
"112",
"113",
"140",
"129",
"129",
"110",
"123",
"120",
"122",
"145",
"119",
"111",
"119",
"108",
"154",
"110",
"122",
"131",
"130",
"114",
"112",
"108",
"132",
"135",
"135",
"126",
"135",
"125",
"127",
"101",
"121",
"122",
"121",
"124",
"120",
"118",
"142",
"125",
"114",
"135",
"112",
"114",
"131",
"117",
"132",
"119",
"113",
"134",
"147",
"129",
"118",
"111",
"118",
"115",
"120",
"121",
"145",
"137",
"119",
"118",
"137",
"139",
"115",
"134",
"101",
"102",
"124",
"129",
"119",
"122",
"111",
"120",
"111",
"101",
"120",
"121",
"115",
"115",
"115",
"102",
"114",
"114",
"107",
"95",
"119",
"106",
"109",
"107",
"130",
"100",
"101",
"109",
"111",
"83",
"105",
"114",
"96",
"110",
"87",
"90",
"98",
"108",
"99",
"102",
"99",
"98",
"107",
"88",
"97",
"103",
"88",
"105",
"115",
"105",
"101",
"101",
"111",
"106",
"122",
"101",
"86",
"112",
"117",
"88",
"93",
"102",
"99",
"114",
"98",
"107",
"110",
"118",
"105",
"103",
"102",
"94",
"99",
"102",
"101",
"120",
"114",
"102",
"110",
"90",
"108",
"84",
"96",
"87",
"94",
"99",
"127",
"102",
"86",
"107",
"108",
"106",
"98",
"94",
"100",
"105",
"106",
"98",
"82",
"97",
"82",
"77",
"85",
"112",
"98",
"110",
"105",
"110",
"102",
"89",
"99",
"87",
"87",
"96",
"85",
"106",
"105",
"98",
"99",
"101",
"90",
"113",
"89",
"106",
"78",
"102",
"93",
"119",
"96",
"75",
"83",
"86",
"99",
"85",
"101",
"107",
"114",
"87",
"105",
"93",
"89",
"95",
"110",
"87",
"98",
"101",
"69",
"89",
"102",
"87",
"90",
"103",
"74",
"115",
"87",
"83",
"93",
"93",
"95",
"90",
"90",
"89",
"106",
"88",
"97",
"98",
"95",
"94",
"72",
"86",
"103",
"83",
"111",
"102",
"83",
"100",
"121",
"89",
"93",
"85",
"90",
"99",
"98",
"98",
"96",
"107",
"100",
"106",
"113",
"97",
"106",
"117",
"121",
"95",
"113",
"107",
"97",
"109",
"96",
"103",
"118",
"96",
"143",
"132",
"139",
"125",
"138",
"126",
"144",
"138",
"162",
"152",
"185",
"154",
"168",
"169",
"192",
"197",
"206",
"212",
"265",
"234",
"302",
"283",
"326",
"328",
"343",
"369",
"388",
"384",
"459",
"420",
"498",
"485",
"577",
"516",
"571",
"572",
"566",
"525",
"606",
"522",
"553",
"503",
"488",
"534",
"470",
"490",
"443",
"391",
"367",
"362",
"344",
"298",
"310",
"306",
"282",
"261",
"232",
"195",
"218",
"207",
"163",
"158",
"145",
"154",
"156",
"161",
"140",
"156",
"127",
"138",
"172",
"154",
"182",
"215",
"243",
"264",
"259",
"250",
"285",
"330",
"345",
"317",
"369",
"345",
"359",
"316",
"337",
"276",
"285",
"190",
"213",
"181",
"168",
"136",
"145",
"139",
"115",
"98",
"103",
"94",
"99",
"100",
"244528",
"Channel_info_start",
"Channel : Mg",
"Points : 0",
"Range : 0.000000 - 0.000000",
"Step : 0.010000",
"Channel_info_end",
"Channel_info_start",
"Channel : Al",
"Points : 0",
"Range : 0.000000 - 0.000000",
"Step : 0.010000",
"Channel_info_end",
"Channel_info_start",
"Channel : Si",
"Points : 0",
"Range : 0.000000 - 0.000000",
"Step : 0.010000",
"Channel_info_end",
"Channel_info_start",
"Channel : P ",
"Points : 0",
"Range : 0.000000 - 0.000000",
"Step : 0.010000",
"Channel_info_end",
"Channel_info_start",
"Channel : S ",
"Points : 0",
"Range : 0.000000 - 0.000000",
"Step : 0.010000",
"Channel_info_end",
"Channel_info_start",
"Channel : Cl",
"Points : 0",
"Range : 0.000000 - 0.000000",
"Step : 0.010000",
"Channel_info_end",
"Channel_info_start",
"Channel : K ",
"Points : 0",
"Range : 0.000000 - 0.000000",
"Step : 0.010000",
"Channel_info_end",
"Channel_info_start",
"Channel : Ca",
"Points : 0",
"Range : 0.000000 - 0.000000",
"Step : 0.010000",
"Channel_info_end",
"Channel_info_start",
"Channel : Ti",
"Points : 0",
"Range : 0.000000 - 0.000000",
"Step : 0.010000",
"Channel_info_end",
"Channel_info_start",
"Channel : V ",
"Points : 0",
"Range : 0.000000 - 0.000000",
"Step : 0.010000",
"Channel_info_end",
"Channel_info_start",
"Channel : Cr",
"Points : 0",
"Range : 0.000000 - 0.000000",
"Step : 0.010000",
"Channel_info_end",
"Channel_info_start",
"Channel : Mn",
"Points : 0",
"Range : 0.000000 - 0.000000",
"Step : 0.010000",
"Channel_info_end",
"Channel_info_start",
"Channel : Fe",
"Points : 0",
"Range : 0.000000 - 0.000000",
"Step : 0.010000",
"Channel_info_end",
"Channel_info_start",
"Channel : Cu",
"Points : 0",
"Range : 0.000000 - 0.000000",
"Step : 0.010000",
"Channel_info_end",
"Channel_info_start",
"Channel : Zn",
"Points : 0",
"Range : 0.000000 - 0.000000",
"Step : 0.010000",
"Channel_info_end",
"Channel_info_start",
"Channel : Sr",
"Points : 0",
"Range : 0.000000 - 0.000000",
"Step : 0.010000",
"Channel_info_end",
"Channel_info_start",
"Channel : Pb",
"Points : 0",
"Range : 0.000000 - 0.000000",
"Step : 0.010000",
"Channel_info_end",
"",
"Qualitative Result",
"--------------------------------------------------------------------------------",
"Element :  Mg, Al, P , Cl, In, K , Ca, Rh",
"",
"Peak List",
"--------------------------------------------------------------------------------",
"Channel               Line        keV     Net Int.(cps/uA)",
"--------------------------------------------------------------------------------",
"Na                    MgKa         1.24     0.025",
"                      AlKa         1.44     0.014",
"                      P Ka         2.00     0.018",
"                      ClKa         2.64     0.067",
"                      ----         2.98     1.892",
"                      ----         3.16     0.949",
"                      InLa         3.29     0.049",
"                      K Ka         3.38     0.126",
"                      K Kb         3.52     0.018",
"                      InLb1        3.52     0.024",
"                      CaKa         3.69     0.269",
"                      CaKb         4.02     0.025",
"                      ----         6.16     0.019",
"                      ----         6.41     0.030",
"                      RhKaC       19.23     0.118",
"                      ----        19.51     0.038",
"                      RhKa        20.09     0.079",
"--------------------------------------------------------------------------------",
"",
"Quantitative Result",
"--------------------------------------------------------------------------------",
"Analyte               Result             Std.Dev. Proc.-Calc. Line Intensity(cps/uA)",
"--------------------------------------------------------------------------------",
"====[No. 1 Layer]====< Layer1               >===============================",
"Layer1                   8.246 ug/cm2    -------- Flux       -------- --------",
"Mg                       8.246 ug/cm2    -------- ********** -------- --------",