File: inputs/edxCalibration/edx_raw/2010/junho/Al 31492.20100525201543.csv
"Sample    : Al 31492",
"Operator  : thiago",
"Comment  : cubatao-g-policarbonato",
"Group     : kerr2007ag180cal_lt",
"Date       : 2010-05-25 20:11:30",
"",
"Mesurement Condition",
"------------------------------------------------------------------------------------",
"Instrument : 700HS2   Atmosphere : Vac.   Collimator : 10(mm)   Spin : No",
"------------------------------------------------------------------------------------",
"Analyte               TG kV   uA      FI Acq.(keV)  Anal.(keV)  Time(sec)     DT(%)",
"------------------------------------------------------------------------------------",
"Na                    Rh 50  970-Auto Al  0 - 20    0.8 - 1.2   Live -  179   15",
"",
"<Profile>",
"Channel_info_start",
"Channel : Na",
"Points : 2048",
"Range : 0.000000 - 20.48",
"Step : 0.010000",
"Channel_info_end",
"0",
"0",
"0",
"0",
"0",
"0",
"0",
"0",
"0",
"0",
"0",
"0",
"0",
"0",
"0",
"24",
"52",
"49",
"33",
"65",
"50",
"56",
"54",
"52",
"51",
"40",
"64",
"59",
"61",
"40",
"52",
"47",
"44",
"49",
"45",
"64",
"42",
"42",
"54",
"40",
"44",
"36",
"51",
"42",
"39",
"32",
"42",
"45",
"46",
"53",
"52",
"49",
"46",
"45",
"53",
"50",
"59",
"49",
"60",
"51",
"72",
"78",
"91",
"102",
"134",
"123",
"137",
"177",
"254",
"528",
"1266",
"2453",
"4170",
"5798",
"6855",
"6367",
"5175",
"3450",
"1977",
"992",
"435",
"199",
"125",
"77",
"79",
"72",
"70",
"70",
"75",
"51",
"62",
"56",
"64",
"53",
"62",
"89",
"121",
"147",
"208",
"257",
"308",
"305",
"244",
"219",
"134",
"100",
"62",
"56",
"47",
"38",
"44",
"38",
"39",
"36",
"34",
"33",
"41",
"47",
"41",
"46",
"25",
"45",
"30",
"35",
"49",
"26",
"36",
"34",
"40",
"34",
"36",
"40",
"38",
"59",
"50",
"51",
"63",
"58",
"63",
"46",
"50",
"51",
"58",
"59",
"46",
"54",
"38",
"60",
"51",
"50",
"45",
"39",
"33",
"40",
"57",
"38",
"34",
"37",
"52",
"46",
"49",
"53",
"53",
"61",
"64",
"64",
"81",
"70",
"83",
"64",
"64",
"69",
"73",
"76",
"82",
"96",
"142",
"202",
"347",
"640",
"1156",
"1756",
"2514",
"3279",
"3700",
"3565",
"3298",
"2484",
"1831",
"1088",
"655",
"380",
"249",
"220",
"173",
"224",
"259",
"312",
"393",
"504",
"479",
"499",
"516",
"364",
"314",
"221",
"173",
"118",
"108",
"74",
"79",
"82",
"115",
"123",
"112",
"127",
"156",
"118",
"155",
"146",
"139",
"149",
"151",
"156",
"179",
"175",
"162",
"188",
"181",
"209",
"200",
"177",
"182",
"181",
"168",
"157",
"140",
"145",
"150",
"145",
"158",
"138",
"149",
"124",
"136",
"149",
"158",
"132",
"126",
"137",
"146",
"127",
"137",
"146",
"138",
"139",
"146",
"130",
"149",
"138",
"149",
"147",
"176",
"176",
"165",
"163",
"191",
"208",
"217",
"191",
"232",
"201",
"213",
"226",
"209",
"181",
"209",
"212",
"202",
"233",
"179",
"182",
"188",
"171",
"170",
"201",
"185",
"197",
"180",
"184",
"158",
"192",
"208",
"182",
"191",
"235",
"183",
"199",
"234",
"241",
"221",
"218",
"250",
"258",
"239",
"255",
"262",
"247",
"283",
"280",
"328",
"312",
"296",
"290",
"323",
"322",
"312",
"367",
"384",
"392",
"392",
"371",
"410",
"377",
"345",
"341",
"327",
"297",
"364",
"319",
"353",
"365",
"376",
"321",
"367",
"360",
"353",
"324",
"351",
"314",
"343",
"330",
"319",
"307",
"288",
"310",
"328",
"318",
"329",
"336",
"331",
"329",
"337",
"310",
"307",
"287",
"297",
"283",
"318",
"294",
"325",
"290",
"318",
"284",
"337",
"300",
"309",
"299",
"288",
"300",
"342",
"322",
"322",
"287",
"323",
"333",
"285",
"312",
"329",
"325",
"339",
"324",
"321",
"314",
"308",
"319",
"360",
"294",
"337",
"341",
"327",
"340",
"346",
"341",
"348",
"348",
"347",
"386",
"383",
"391",
"439",
"444",
"444",
"411",
"426",
"358",
"458",
"395",
"340",
"379",
"363",
"364",
"379",
"315",
"354",
"363",
"351",
"380",
"384",
"371",
"379",
"414",
"418",
"407",
"445",
"443",
"490",
"496",
"572",
"575",
"598",
"582",
"601",
"565",
"568",
"541",
"472",
"439",
"406",
"395",
"353",
"376",
"334",
"345",
"358",
"292",
"337",
"364",
"343",
"297",
"376",
"332",
"347",
"327",
"337",
"353",
"348",
"329",
"396",
"343",
"339",
"339",
"336",
"329",
"364",
"344",
"347",
"351",
"376",
"348",
"342",
"339",
"337",
"321",
"355",
"370",
"421",
"336",
"378",
"361",
"361",
"328",
"333",
"348",
"376",
"337",
"321",
"330",
"327",
"287",
"344",
"331",
"356",
"352",
"351",
"302",
"331",
"344",
"367",
"310",
"308",
"284",
"334",
"311",
"333",
"340",
"299",
"349",
"309",
"337",
"341",
"337",
"295",
"319",
"334",
"312",
"329",
"314",
"318",
"315",
"291",
"330",
"329",
"344",
"341",
"281",
"333",
"312",
"311",
"319",
"293",
"319",
"321",
"309",
"317",
"324",
"307",
"318",
"311",
"293",
"315",
"340",
"342",
"315",
"297",
"333",
"308",
"308",
"312",
"316",
"343",
"307",
"323",
"325",
"287",
"304",
"312",
"322",
"357",
"305",
"344",
"299",
"330",
"315",
"299",
"308",
"329",
"320",
"304",
"316",
"320",
"312",
"324",
"291",
"294",
"302",
"324",
"327",
"337",
"300",
"331",
"302",
"318",
"295",
"303",
"318",
"344",
"305",
"304",
"331",
"372",
"331",
"334",
"321",
"368",
"363",
"316",
"354",
"320",
"307",
"344",
"295",
"321",
"298",
"296",
"318",
"324",
"269",
"303",
"307",
"305",
"281",
"336",
"297",
"296",
"296",
"284",
"277",
"284",
"298",
"267",
"291",
"291",
"294",
"325",
"260",
"265",
"281",
"310",
"317",
"285",
"299",
"324",
"297",
"277",
"280",
"327",
"297",
"274",
"243",
"277",
"245",
"255",
"295",
"323",
"294",
"271",
"280",
"258",
"274",
"295",
"285",
"288",
"254",
"293",
"277",
"285",
"277",
"270",
"251",
"293",
"269",
"277",
"296",
"278",
"283",
"275",
"260",
"257",
"259",
"269",
"286",
"274",
"304",
"250",
"269",
"238",
"270",
"247",
"281",
"293",
"270",
"245",
"225",
"280",
"233",
"269",
"250",
"248",
"257",
"259",
"233",
"266",
"271",
"269",
"261",
"272",
"266",
"236",
"278",
"263",
"266",
"275",
"226",
"273",
"257",
"290",
"295",
"279",
"238",
"284",
"218",
"234",
"258",
"237",
"278",
"280",
"248",
"233",
"273",
"250",
"231",
"236",
"213",
"229",
"259",
"229",
"254",
"225",
"239",
"248",
"258",
"261",
"233",
"259",
"220",
"250",
"225",
"236",
"243",
"249",
"258",
"219",
"232",
"251",
"242",
"243",
"234",
"248",
"233",
"248",
"233",
"271",
"233",
"263",
"216",
"259",
"236",
"212",
"216",
"257",
"216",
"228",
"244",
"244",
"232",
"237",
"263",
"254",
"243",
"192",
"214",
"225",
"224",
"213",
"209",
"206",
"231",
"244",
"219",
"237",
"217",
"218",
"251",
"245",
"188",
"194",
"216",
"233",
"177",
"225",
"229",
"224",
"200",
"212",
"201",
"250",
"194",
"204",
"222",
"219",
"232",
"218",
"222",
"209",
"249",
"251",
"209",
"200",
"222",
"220",
"224",
"219",
"194",
"219",
"205",
"218",
"211",
"189",
"224",
"247",
"189",
"199",
"212",
"182",
"210",
"220",
"197",
"223",
"208",
"184",
"201",
"210",
"187",
"220",
"181",
"209",
"180",
"218",
"202",
"197",
"210",
"219",
"200",
"209",
"201",
"209",
"206",
"218",
"194",
"231",
"199",
"200",
"198",
"237",
"199",
"195",
"201",
"210",
"191",
"189",
"199",
"185",
"198",
"229",
"201",
"200",
"197",
"202",
"186",
"187",
"223",
"196",
"197",
"202",
"220",
"188",
"211",
"201",
"217",
"197",
"209",
"225",
"202",
"207",
"207",
"205",
"195",
"231",
"193",
"194",
"216",
"196",
"199",
"229",
"220",
"224",
"223",
"199",
"205",
"226",
"237",
"242",
"209",
"207",
"219",
"229",
"247",
"247",
"211",
"244",
"232",
"232",
"248",
"265",
"237",
"263",
"246",
"241",
"265",
"277",
"253",
"259",
"244",
"298",
"319",
"307",
"293",
"344",
"291",
"342",
"340",
"365",
"394",
"445",
"427",
"457",
"463",
"523",
"564",
"601",
"618",
"649",
"701",
"867",
"825",
"959",
"953",
"1068",
"1093",
"1179",
"1274",
"1335",
"1295",
"1373",
"1383",
"1437",
"1408",
"1478",
"1449",
"1556",
"1427",
"1388",
"1391",
"1446",
"1288",
"1277",
"1164",
"1209",
"1025",
"1060",
"954",
"1005",
"826",
"765",
"704",
"711",
"640",
"553",
"527",
"499",
"431",
"411",
"415",
"409",
"345",
"335",
"321",
"359",
"300",
"304",
"297",
"365",
"310",
"383",
"364",
"423",
"396",
"475",
"479",
"551",
"524",
"588",
"572",
"564",
"558",
"564",
"497",
"531",
"419",
"434",
"426",
"376",
"340",
"312",
"250",
"272",
"206",
"210",
"202",
"226",
"207",
"206",
"200",
"100627",
"Channel_info_start",
"Channel : Mg",
"Points : 0",
"Range : 0.000000 - 0.000000",
"Step : 0.010000",
"Channel_info_end",
"Channel_info_start",
"Channel : Al",
"Points : 0",
"Range : 0.000000 - 0.000000",
"Step : 0.010000",
"Channel_info_end",
"Channel_info_start",
"Channel : Si",
"Points : 0",
"Range : 0.000000 - 0.000000",
"Step : 0.010000",
"Channel_info_end",
"Channel_info_start",
"Channel : P ",
"Points : 0",
"Range : 0.000000 - 0.000000",
"Step : 0.010000",
"Channel_info_end",
"Channel_info_start",
"Channel : S ",
"Points : 0",
"Range : 0.000000 - 0.000000",
"Step : 0.010000",
"Channel_info_end",
"Channel_info_start",
"Channel : Cl",
"Points : 0",
"Range : 0.000000 - 0.000000",
"Step : 0.010000",
"Channel_info_end",
"Channel_info_start",
"Channel : K ",
"Points : 0",
"Range : 0.000000 - 0.000000",
"Step : 0.010000",
"Channel_info_end",
"Channel_info_start",
"Channel : Ca",
"Points : 0",
"Range : 0.000000 - 0.000000",
"Step : 0.010000",
"Channel_info_end",
"Channel_info_start",
"Channel : Ti",
"Points : 0",
"Range : 0.000000 - 0.000000",
"Step : 0.010000",
"Channel_info_end",
"Channel_info_start",
"Channel : V ",
"Points : 0",
"Range : 0.000000 - 0.000000",
"Step : 0.010000",
"Channel_info_end",
"Channel_info_start",
"Channel : Cr",
"Points : 0",
"Range : 0.000000 - 0.000000",
"Step : 0.010000",
"Channel_info_end",
"Channel_info_start",
"Channel : Mn",
"Points : 0",
"Range : 0.000000 - 0.000000",
"Step : 0.010000",
"Channel_info_end",
"Channel_info_start",
"Channel : Fe",
"Points : 0",
"Range : 0.000000 - 0.000000",
"Step : 0.010000",
"Channel_info_end",
"Channel_info_start",
"Channel : Cu",
"Points : 0",
"Range : 0.000000 - 0.000000",
"Step : 0.010000",
"Channel_info_end",
"Channel_info_start",
"Channel : Zn",
"Points : 0",
"Range : 0.000000 - 0.000000",
"Step : 0.010000",
"Channel_info_end",
"Channel_info_start",
"Channel : Sr",
"Points : 0",
"Range : 0.000000 - 0.000000",
"Step : 0.010000",
"Channel_info_end",
"Channel_info_start",
"Channel : Pb",
"Points : 0",
"Range : 0.000000 - 0.000000",
"Step : 0.010000",
"Channel_info_end",
"",
"Qualitative Result",
"--------------------------------------------------------------------------------",
"Element :  Al, P , Ca, Rh",
"",
"Peak List",
"--------------------------------------------------------------------------------",
"Channel               Line        keV     Net Int.(cps/uA)",
"--------------------------------------------------------------------------------",
"Na                    AlKa         1.48     0.446",
"                      P Ka         2.00     0.019",
"                      CaKa         3.68     0.291",
"                      CaKb         4.02     0.033",
"                      ----         6.42     0.011",
"                      ----         8.64     0.028",
"                      RhKaC       19.17     0.134",
"                      ----        19.44     0.069",
"                      RhKa        20.08     0.043",
"--------------------------------------------------------------------------------",
"",
"Quantitative Result",
"--------------------------------------------------------------------------------",
"Analyte               Result             Std.Dev. Proc.-Calc. Line Intensity(cps/uA)",
"--------------------------------------------------------------------------------",
"====[No. 1 Layer]====< Layer1               >===============================",
"Layer1                   0.000 ug/cm2    -------- Flux       -------- --------",