File: inputs/edxCalibration/edx_raw/2010/junho/Al 31492.20100611003131.csv
"Sample    : Al 31492",
"Operator  : thiago",
"Comment  : cubatao-g-policarbonato",
"Group     : kerr2007ag180cal_lt",
"Date       : 2010-06-11 00:27:19",
"",
"Mesurement Condition",
"------------------------------------------------------------------------------------",
"Instrument : 700HS2   Atmosphere : Vac.   Collimator : 10(mm)   Spin : No",
"------------------------------------------------------------------------------------",
"Analyte               TG kV   uA      FI Acq.(keV)  Anal.(keV)  Time(sec)     DT(%)",
"------------------------------------------------------------------------------------",
"Na                    Rh 50  970-Auto Al  0 - 20    0.8 - 1.2   Live -  179   15",
"",
"<Profile>",
"Channel_info_start",
"Channel : Na",
"Points : 2048",
"Range : 0.000000 - 20.48",
"Step : 0.010000",
"Channel_info_end",
"0",
"0",
"0",
"0",
"0",
"0",
"0",
"0",
"0",
"0",
"0",
"0",
"0",
"0",
"1",
"20",
"49",
"42",
"48",
"53",
"50",
"48",
"61",
"61",
"36",
"63",
"59",
"63",
"46",
"58",
"59",
"65",
"45",
"58",
"54",
"41",
"50",
"30",
"51",
"32",
"38",
"57",
"48",
"46",
"36",
"53",
"58",
"42",
"49",
"48",
"47",
"51",
"59",
"42",
"47",
"40",
"58",
"47",
"73",
"57",
"81",
"76",
"87",
"100",
"89",
"107",
"118",
"163",
"294",
"618",
"1317",
"2598",
"4184",
"5635",
"6539",
"6218",
"5268",
"3458",
"2051",
"1010",
"438",
"243",
"116",
"93",
"83",
"72",
"63",
"66",
"74",
"65",
"61",
"57",
"65",
"71",
"69",
"82",
"114",
"180",
"221",
"282",
"288",
"295",
"242",
"176",
"124",
"97",
"69",
"56",
"49",
"45",
"44",
"19",
"40",
"35",
"35",
"30",
"44",
"50",
"58",
"44",
"42",
"32",
"45",
"46",
"34",
"30",
"28",
"40",
"33",
"38",
"44",
"37",
"53",
"52",
"62",
"52",
"52",
"46",
"53",
"56",
"48",
"61",
"49",
"59",
"56",
"47",
"54",
"53",
"32",
"40",
"34",
"34",
"44",
"45",
"61",
"44",
"47",
"56",
"42",
"37",
"56",
"67",
"66",
"59",
"66",
"74",
"59",
"72",
"61",
"50",
"58",
"83",
"66",
"54",
"96",
"123",
"135",
"221",
"413",
"718",
"1151",
"1803",
"2493",
"3170",
"3571",
"3434",
"3086",
"2397",
"1771",
"1119",
"634",
"381",
"283",
"194",
"168",
"202",
"273",
"304",
"432",
"477",
"533",
"541",
"450",
"413",
"285",
"248",
"202",
"138",
"91",
"106",
"86",
"103",
"114",
"101",
"128",
"123",
"132",
"151",
"146",
"139",
"127",
"114",
"151",
"146",
"180",
"193",
"163",
"176",
"207",
"201",
"206",
"184",
"197",
"174",
"185",
"173",
"177",
"143",
"162",
"153",
"171",
"140",
"147",
"160",
"132",
"152",
"150",
"122",
"131",
"121",
"125",
"119",
"137",
"143",
"148",
"124",
"126",
"136",
"147",
"151",
"144",
"149",
"176",
"171",
"186",
"167",
"188",
"214",
"192",
"213",
"223",
"219",
"186",
"205",
"181",
"198",
"190",
"168",
"199",
"193",
"186",
"169",
"219",
"199",
"187",
"164",
"182",
"181",
"177",
"192",
"172",
"186",
"204",
"196",
"216",
"211",
"222",
"205",
"233",
"197",
"235",
"238",
"223",
"230",
"259",
"231",
"259",
"287",
"265",
"265",
"275",
"312",
"313",
"340",
"330",
"356",
"344",
"356",
"343",
"374",
"398",
"360",
"366",
"370",
"368",
"353",
"346",
"360",
"352",
"315",
"381",
"332",
"367",
"341",
"355",
"346",
"358",
"309",
"340",
"328",
"342",
"337",
"315",
"319",
"325",
"328",
"324",
"317",
"367",
"310",
"332",
"303",
"303",
"325",
"302",
"343",
"315",
"299",
"334",
"300",
"279",
"282",
"295",
"284",
"286",
"273",
"327",
"292",
"359",
"307",
"292",
"325",
"328",
"335",
"331",
"281",
"296",
"327",
"334",
"310",
"345",
"318",
"329",
"292",
"315",
"339",
"336",
"292",
"310",
"316",
"366",
"320",
"336",
"340",
"353",
"376",
"389",
"343",
"344",
"391",
"428",
"401",
"421",
"415",
"402",
"415",
"378",
"345",
"339",
"325",
"341",
"352",
"358",
"385",
"381",
"357",
"390",
"357",
"388",
"368",
"417",
"368",
"403",
"390",
"402",
"409",
"496",
"551",
"585",
"540",
"598",
"612",
"583",
"591",
"546",
"501",
"487",
"397",
"398",
"389",
"403",
"353",
"353",
"317",
"341",
"342",
"361",
"342",
"373",
"310",
"346",
"329",
"302",
"332",
"357",
"371",
"322",
"307",
"367",
"364",
"353",
"348",
"346",
"361",
"347",
"303",
"364",
"320",
"343",
"340",
"324",
"347",
"333",
"384",
"380",
"382",
"336",
"368",
"361",
"313",
"386",
"340",
"340",
"327",
"340",
"358",
"336",
"312",
"325",
"306",
"334",
"330",
"316",
"278",
"342",
"311",
"364",
"312",
"344",
"307",
"346",
"313",
"356",
"311",
"280",
"341",
"315",
"349",
"357",
"308",
"312",
"286",
"336",
"319",
"319",
"329",
"320",
"298",
"295",
"327",
"319",
"342",
"347",
"305",
"306",
"347",
"332",
"320",
"318",
"330",
"343",
"315",
"319",
"329",
"317",
"320",
"284",
"282",
"313",
"297",
"303",
"308",
"309",
"309",
"335",
"332",
"303",
"292",
"283",
"311",
"321",
"272",
"313",
"333",
"307",
"337",
"280",
"307",
"322",
"271",
"328",
"320",
"311",
"291",
"290",
"294",
"320",
"282",
"327",
"299",
"332",
"319",
"328",
"325",
"349",
"281",
"344",
"317",
"295",
"308",
"309",
"306",
"281",
"315",
"322",
"279",
"309",
"283",
"311",
"321",
"311",
"306",
"310",
"304",
"322",
"340",
"334",
"339",
"357",
"328",
"313",
"321",
"306",
"333",
"315",
"269",
"309",
"278",
"316",
"280",
"303",
"282",
"324",
"274",
"275",
"293",
"308",
"299",
"284",
"261",
"291",
"279",
"295",
"286",
"270",
"271",
"319",
"299",
"304",
"284",
"287",
"306",
"322",
"274",
"293",
"296",
"330",
"275",
"296",
"276",
"292",
"279",
"260",
"270",
"287",
"292",
"287",
"265",
"298",
"299",
"243",
"245",
"243",
"280",
"306",
"287",
"276",
"275",
"295",
"302",
"276",
"295",
"273",
"261",
"280",
"268",
"272",
"246",
"302",
"260",
"260",
"262",
"269",
"266",
"311",
"278",
"262",
"246",
"247",
"257",
"290",
"248",
"214",
"234",
"304",
"250",
"288",
"244",
"281",
"250",
"262",
"256",
"243",
"275",
"244",
"273",
"254",
"251",
"256",
"251",
"284",
"255",
"269",
"256",
"283",
"202",
"260",
"319",
"282",
"236",
"242",
"258",
"233",
"246",
"275",
"257",
"243",
"220",
"241",
"254",
"243",
"228",
"248",
"253",
"244",
"254",
"258",
"243",
"253",
"253",
"281",
"247",
"268",
"239",
"257",
"238",
"267",
"228",
"235",
"218",
"262",
"249",
"220",
"221",
"237",
"223",
"236",
"226",
"219",
"195",
"245",
"243",
"233",
"221",
"243",
"210",
"238",
"246",
"260",
"243",
"234",
"222",
"205",
"216",
"218",
"218",
"235",
"236",
"245",
"230",
"199",
"221",
"235",
"232",
"219",
"232",
"204",
"226",
"208",
"189",
"239",
"258",
"220",
"218",
"243",
"193",
"239",
"229",
"231",
"200",
"232",
"209",
"245",
"212",
"230",
"206",
"211",
"206",
"201",
"211",
"237",
"199",
"186",
"204",
"231",
"199",
"238",
"220",
"205",
"185",
"213",
"221",
"205",
"221",
"221",
"188",
"219",
"208",
"194",
"222",
"232",
"219",
"209",
"219",
"219",
"201",
"209",
"184",
"198",
"209",
"232",
"195",
"188",
"219",
"214",
"195",
"218",
"239",
"217",
"214",
"183",
"204",
"188",
"193",
"198",
"186",
"189",
"175",
"193",
"171",
"218",
"205",
"197",
"176",
"223",
"204",
"219",
"192",
"187",
"192",
"187",
"193",
"204",
"199",
"217",
"199",
"199",
"206",
"210",
"229",
"204",
"182",
"213",
"209",
"186",
"182",
"190",
"211",
"216",
"218",
"209",
"194",
"205",
"201",
"225",
"205",
"205",
"219",
"218",
"195",
"198",
"167",
"201",
"196",
"208",
"187",
"259",
"231",
"219",
"196",
"233",
"205",
"245",
"206",
"242",
"222",
"231",
"218",
"230",
"221",
"242",
"223",
"253",
"249",
"232",
"237",
"222",
"262",
"276",
"246",
"278",
"243",
"273",
"283",
"281",
"316",
"293",
"299",
"359",
"320",
"340",
"336",
"362",
"388",
"401",
"433",
"458",
"456",
"485",
"551",
"576",
"657",
"660",
"770",
"896",
"825",
"968",
"944",
"1066",
"1013",
"1205",
"1206",
"1283",
"1290",
"1423",
"1415",
"1372",
"1401",
"1501",
"1433",
"1636",
"1428",
"1512",
"1426",
"1390",
"1267",
"1281",
"1159",
"1168",
"1034",
"1024",
"942",
"888",
"821",
"774",
"710",
"702",
"661",
"611",
"552",
"477",
"426",
"389",
"411",
"364",
"322",
"353",
"321",
"313",
"287",
"332",
"353",
"334",
"331",
"370",
"370",
"388",
"427",
"464",
"451",
"520",
"569",
"549",
"531",
"616",
"580",
"544",
"495",
"599",
"477",
"434",
"413",
"366",
"344",
"310",
"278",
"258",
"224",
"222",
"185",
"195",
"182",
"204",
"184",
"99730",
"Channel_info_start",
"Channel : Mg",
"Points : 0",
"Range : 0.000000 - 0.000000",
"Step : 0.010000",
"Channel_info_end",
"Channel_info_start",
"Channel : Al",
"Points : 0",
"Range : 0.000000 - 0.000000",
"Step : 0.010000",
"Channel_info_end",
"Channel_info_start",
"Channel : Si",
"Points : 0",
"Range : 0.000000 - 0.000000",
"Step : 0.010000",
"Channel_info_end",
"Channel_info_start",
"Channel : P ",
"Points : 0",
"Range : 0.000000 - 0.000000",
"Step : 0.010000",
"Channel_info_end",
"Channel_info_start",
"Channel : S ",
"Points : 0",
"Range : 0.000000 - 0.000000",
"Step : 0.010000",
"Channel_info_end",
"Channel_info_start",
"Channel : Cl",
"Points : 0",
"Range : 0.000000 - 0.000000",
"Step : 0.010000",
"Channel_info_end",
"Channel_info_start",
"Channel : K ",
"Points : 0",
"Range : 0.000000 - 0.000000",
"Step : 0.010000",
"Channel_info_end",
"Channel_info_start",
"Channel : Ca",
"Points : 0",
"Range : 0.000000 - 0.000000",
"Step : 0.010000",
"Channel_info_end",
"Channel_info_start",
"Channel : Ti",
"Points : 0",
"Range : 0.000000 - 0.000000",
"Step : 0.010000",
"Channel_info_end",
"Channel_info_start",
"Channel : V ",
"Points : 0",
"Range : 0.000000 - 0.000000",
"Step : 0.010000",
"Channel_info_end",
"Channel_info_start",
"Channel : Cr",
"Points : 0",
"Range : 0.000000 - 0.000000",
"Step : 0.010000",
"Channel_info_end",
"Channel_info_start",
"Channel : Mn",
"Points : 0",
"Range : 0.000000 - 0.000000",
"Step : 0.010000",
"Channel_info_end",
"Channel_info_start",
"Channel : Fe",
"Points : 0",
"Range : 0.000000 - 0.000000",
"Step : 0.010000",
"Channel_info_end",
"Channel_info_start",
"Channel : Cu",
"Points : 0",
"Range : 0.000000 - 0.000000",
"Step : 0.010000",
"Channel_info_end",
"Channel_info_start",
"Channel : Zn",
"Points : 0",
"Range : 0.000000 - 0.000000",
"Step : 0.010000",
"Channel_info_end",
"Channel_info_start",
"Channel : Sr",
"Points : 0",
"Range : 0.000000 - 0.000000",
"Step : 0.010000",
"Channel_info_end",
"Channel_info_start",
"Channel : Pb",
"Points : 0",
"Range : 0.000000 - 0.000000",
"Step : 0.010000",
"Channel_info_end",
"",
"Qualitative Result",
"--------------------------------------------------------------------------------",
"Element :  Al, P , Ca, Fe, Rh",
"",
"Peak List",
"--------------------------------------------------------------------------------",
"Channel               Line        keV     Net Int.(cps/uA)",
"--------------------------------------------------------------------------------",
"Na                    AlKa         1.48     0.428",
"                      P Ka         2.01     0.017",
"                      CaKa         3.68     0.283",
"                      CaKb         4.01     0.037",
"                      FeKa         6.40     0.014",
"                      ----         8.62     0.029",
"                      RhKaC       19.20     0.145",
"                      ----        19.56     0.027",
"                      RhKa        20.05     0.038",
"--------------------------------------------------------------------------------",
"",
"Quantitative Result",
"--------------------------------------------------------------------------------",
"Analyte               Result             Std.Dev. Proc.-Calc. Line Intensity(cps/uA)",
"--------------------------------------------------------------------------------",
"====[No. 1 Layer]====< Layer1               >===============================",
"Layer1                   0.000 ug/cm2    -------- Flux       -------- --------",