File: inputs/edxCalibration/edx_raw/2010/junho/Au 15771.20100626151105.csv
"Sample    : Au 15771",
"Operator  : thiago",
"Comment  : cubatao-g-policarbonato",
"Group     : kerr2007ag180cal_lt",
"Date       : 2010-06-26 15:07:00",
"",
"Mesurement Condition",
"------------------------------------------------------------------------------------",
"Instrument : 700HS2   Atmosphere : Vac.   Collimator : 10(mm)   Spin : No",
"------------------------------------------------------------------------------------",
"Analyte               TG kV   uA      FI Acq.(keV)  Anal.(keV)  Time(sec)     DT(%)",
"------------------------------------------------------------------------------------",
"Na                    Rh 50  187-Auto Al  0 - 20    0.8 - 1.2   Live -  179   16",
"",
"<Profile>",
"Channel_info_start",
"Channel : Na",
"Points : 2048",
"Range : 0.000000 - 20.48",
"Step : 0.010000",
"Channel_info_end",
"0",
"0",
"0",
"0",
"0",
"0",
"0",
"0",
"0",
"0",
"0",
"0",
"0",
"0",
"0",
"16",
"64",
"68",
"106",
"109",
"95",
"101",
"93",
"70",
"85",
"57",
"55",
"44",
"36",
"32",
"28",
"31",
"36",
"24",
"37",
"32",
"26",
"23",
"21",
"19",
"24",
"27",
"29",
"29",
"21",
"25",
"35",
"39",
"34",
"27",
"27",
"38",
"32",
"29",
"25",
"29",
"34",
"26",
"25",
"20",
"22",
"23",
"31",
"26",
"43",
"26",
"21",
"24",
"22",
"26",
"29",
"24",
"28",
"40",
"50",
"41",
"35",
"49",
"68",
"101",
"127",
"225",
"284",
"318",
"348",
"262",
"235",
"193",
"157",
"128",
"142",
"153",
"144",
"178",
"183",
"202",
"229",
"254",
"320",
"361",
"465",
"541",
"820",
"1288",
"2057",
"2834",
"3632",
"4237",
"4244",
"3934",
"3693",
"3176",
"2537",
"1748",
"1231",
"666",
"462",
"336",
"329",
"370",
"453",
"398",
"384",
"297",
"243",
"144",
"96",
"62",
"59",
"40",
"48",
"50",
"49",
"46",
"61",
"71",
"101",
"121",
"151",
"161",
"166",
"139",
"135",
"120",
"74",
"72",
"45",
"32",
"34",
"28",
"27",
"21",
"21",
"20",
"25",
"19",
"21",
"26",
"35",
"36",
"33",
"29",
"24",
"20",
"17",
"20",
"38",
"23",
"20",
"35",
"29",
"27",
"26",
"20",
"20",
"15",
"29",
"25",
"51",
"71",
"119",
"173",
"304",
"299",
"410",
"400",
"360",
"290",
"202",
"145",
"83",
"69",
"46",
"38",
"36",
"46",
"41",
"53",
"56",
"63",
"58",
"72",
"59",
"58",
"53",
"31",
"34",
"37",
"28",
"26",
"27",
"17",
"15",
"19",
"27",
"21",
"22",
"28",
"25",
"15",
"33",
"32",
"31",
"14",
"29",
"26",
"32",
"44",
"36",
"47",
"49",
"33",
"33",
"35",
"34",
"36",
"43",
"25",
"35",
"19",
"32",
"27",
"29",
"27",
"22",
"21",
"22",
"32",
"35",
"22",
"28",
"28",
"23",
"36",
"39",
"44",
"38",
"26",
"37",
"44",
"38",
"53",
"43",
"56",
"57",
"59",
"56",
"71",
"61",
"55",
"82",
"70",
"75",
"85",
"82",
"71",
"61",
"65",
"68",
"52",
"58",
"63",
"47",
"53",
"52",
"43",
"45",
"44",
"55",
"49",
"38",
"41",
"49",
"50",
"61",
"50",
"62",
"53",
"80",
"62",
"65",
"68",
"83",
"91",
"73",
"80",
"100",
"103",
"104",
"110",
"108",
"111",
"135",
"135",
"135",
"154",
"149",
"178",
"178",
"193",
"178",
"178",
"195",
"182",
"168",
"175",
"143",
"153",
"147",
"136",
"135",
"115",
"133",
"107",
"135",
"109",
"119",
"100",
"115",
"109",
"105",
"93",
"95",
"88",
"89",
"95",
"75",
"58",
"81",
"81",
"71",
"67",
"67",
"58",
"67",
"68",
"80",
"75",
"73",
"68",
"67",
"87",
"61",
"61",
"69",
"72",
"75",
"68",
"77",
"82",
"75",
"94",
"85",
"82",
"64",
"91",
"94",
"99",
"83",
"61",
"80",
"83",
"92",
"70",
"77",
"97",
"81",
"72",
"86",
"91",
"71",
"85",
"93",
"93",
"108",
"72",
"116",
"120",
"130",
"147",
"130",
"142",
"134",
"141",
"156",
"123",
"133",
"128",
"123",
"129",
"121",
"132",
"124",
"140",
"187",
"156",
"192",
"227",
"314",
"375",
"495",
"594",
"732",
"774",
"779",
"829",
"790",
"709",
"670",
"540",
"490",
"349",
"344",
"244",
"223",
"184",
"137",
"147",
"145",
"104",
"127",
"119",
"123",
"115",
"106",
"110",
"97",
"87",
"124",
"118",
"83",
"95",
"118",
"113",
"101",
"115",
"115",
"130",
"129",
"116",
"124",
"144",
"115",
"130",
"135",
"112",
"141",
"146",
"148",
"192",
"192",
"249",
"253",
"418",
"597",
"919",
"1443",
"2081",
"3049",
"4324",
"6021",
"7199",
"9362",
"10254",
"12049",
"12062",
"12332",
"11429",
"10291",
"8389",
"6937",
"5208",
"3711",
"2582",
"1694",
"1025",
"706",
"401",
"286",
"220",
"153",
"133",
"134",
"160",
"118",
"117",
"140",
"146",
"155",
"191",
"190",
"195",
"243",
"223",
"264",
"269",
"236",
"220",
"213",
"221",
"177",
"189",
"157",
"117",
"113",
"109",
"96",
"99",
"97",
"81",
"105",
"92",
"116",
"91",
"107",
"105",
"96",
"103",
"88",
"106",
"99",
"87",
"137",
"98",
"127",
"118",
"140",
"124",
"160",
"171",
"197",
"220",
"275",
"346",
"400",
"434",
"590",
"614",
"709",
"804",
"903",
"894",
"1108",
"1318",
"1625",
"2060",
"2698",
"3340",
"4138",
"4842",
"5608",
"6084",
"6548",
"6520",
"6684",
"6299",
"5866",
"5480",
"5096",
"4400",
"4016",
"3263",
"3067",
"2410",
"2009",
"1558",
"1243",
"928",
"756",
"510",
"458",
"410",
"365",
"373",
"365",
"337",
"313",
"309",
"322",
"291",
"273",
"249",
"215",
"188",
"194",
"167",
"148",
"112",
"140",
"120",
"116",
"104",
"97",
"85",
"83",
"95",
"83",
"84",
"80",
"83",
"84",
"76",
"81",
"73",
"79",
"59",
"85",
"101",
"81",
"73",
"79",
"64",
"80",
"81",
"82",
"83",
"74",
"67",
"83",
"62",
"69",
"82",
"93",
"112",
"112",
"111",
"121",
"105",
"110",
"118",
"127",
"113",
"115",
"116",
"130",
"125",
"141",
"136",
"144",
"226",
"305",
"375",
"516",
"573",
"693",
"822",
"1000",
"1103",
"1164",
"1095",
"1094",
"1031",
"983",
"805",
"749",
"590",
"503",
"394",
"334",
"308",
"290",
"322",
"311",
"311",
"360",
"384",
"406",
"370",
"395",
"386",
"383",
"320",
"318",
"266",
"240",
"202",
"159",
"153",
"123",
"113",
"92",
"94",
"74",
"89",
"80",
"71",
"84",
"85",
"99",
"77",
"107",
"103",
"103",
"108",
"108",
"116",
"97",
"107",
"87",
"91",
"92",
"87",
"76",
"73",
"58",
"62",
"62",
"64",
"80",
"56",
"68",
"51",
"58",
"59",
"56",
"70",
"80",
"56",
"67",
"53",
"68",
"56",
"63",
"51",
"75",
"51",
"67",
"52",
"69",
"62",
"70",
"53",
"60",
"63",
"59",
"51",
"53",
"47",
"49",
"59",
"52",
"73",
"60",
"56",
"57",
"60",
"52",
"72",
"55",
"57",
"45",
"55",
"50",
"57",
"49",
"50",
"37",
"67",
"65",
"48",
"52",
"46",
"57",
"45",
"52",
"49",
"51",
"61",
"45",
"53",
"64",
"35",
"65",
"48",
"68",
"64",
"51",
"44",
"60",
"57",
"72",
"58",
"61",
"57",
"41",
"48",
"49",
"48",
"59",
"56",
"48",
"69",
"47",
"64",
"58",
"49",
"63",
"48",
"60",
"51",
"48",
"53",
"51",
"50",
"50",
"41",
"48",
"60",
"55",
"55",
"53",
"52",
"47",
"34",
"52",
"55",
"55",
"56",
"40",
"69",
"55",
"31",
"58",
"50",
"49",
"58",
"52",
"49",
"57",
"44",
"72",
"46",
"32",
"36",
"62",
"48",
"37",
"56",
"49",
"52",
"62",
"49",
"39",
"43",
"44",
"44",
"44",
"47",
"51",
"58",
"43",
"49",
"53",
"48",
"38",
"52",
"31",
"50",
"46",
"44",
"60",
"52",
"55",
"31",
"47",
"41",
"43",
"46",
"41",
"55",
"49",
"53",
"57",
"48",
"43",
"50",
"60",
"51",
"34",
"52",
"40",
"64",
"48",
"56",
"53",
"59",
"53",
"60",
"62",
"52",
"44",
"51",
"52",
"48",
"67",
"49",
"60",
"57",
"57",
"56",
"55",
"55",
"70",
"67",
"74",
"55",
"48",
"67",
"61",
"51",
"74",
"70",
"63",
"83",
"92",
"83",
"93",
"120",
"100",
"109",
"104",
"117",
"131",
"132",
"172",
"132",
"171",
"181",
"183",
"180",
"195",
"242",
"270",
"238",
"244",
"259",
"260",
"275",
"311",
"303",
"276",
"282",
"305",
"280",
"260",
"261",
"276",
"242",
"253",
"213",
"196",
"207",
"191",
"155",
"173",
"135",
"167",
"115",
"147",
"104",
"106",
"107",
"89",
"83",
"91",
"72",
"93",
"69",
"68",
"69",
"89",
"101",
"113",
"104",
"113",
"116",
"156",
"149",
"189",
"188",
"243",
"243",
"229",
"259",
"250",
"256",
"254",
"217",
"256",
"213",
"195",
"187",
"164",
"145",
"129",
"98",
"95",
"72",
"67",
"45",
"51",
"45",
"48",
"37",
"23200",
"Channel_info_start",
"Channel : Mg",
"Points : 0",
"Range : 0.000000 - 0.000000",
"Step : 0.010000",
"Channel_info_end",
"Channel_info_start",
"Channel : Al",
"Points : 0",
"Range : 0.000000 - 0.000000",
"Step : 0.010000",
"Channel_info_end",
"Channel_info_start",
"Channel : Si",
"Points : 0",
"Range : 0.000000 - 0.000000",
"Step : 0.010000",
"Channel_info_end",
"Channel_info_start",
"Channel : P ",
"Points : 0",
"Range : 0.000000 - 0.000000",
"Step : 0.010000",
"Channel_info_end",
"Channel_info_start",
"Channel : S ",
"Points : 0",
"Range : 0.000000 - 0.000000",
"Step : 0.010000",
"Channel_info_end",
"Channel_info_start",
"Channel : Cl",
"Points : 0",
"Range : 0.000000 - 0.000000",
"Step : 0.010000",
"Channel_info_end",
"Channel_info_start",
"Channel : K ",
"Points : 0",
"Range : 0.000000 - 0.000000",
"Step : 0.010000",
"Channel_info_end",
"Channel_info_start",
"Channel : Ca",
"Points : 0",
"Range : 0.000000 - 0.000000",
"Step : 0.010000",
"Channel_info_end",
"Channel_info_start",
"Channel : Ti",
"Points : 0",
"Range : 0.000000 - 0.000000",
"Step : 0.010000",
"Channel_info_end",
"Channel_info_start",
"Channel : V ",
"Points : 0",
"Range : 0.000000 - 0.000000",
"Step : 0.010000",
"Channel_info_end",
"Channel_info_start",
"Channel : Cr",
"Points : 0",
"Range : 0.000000 - 0.000000",
"Step : 0.010000",
"Channel_info_end",
"Channel_info_start",
"Channel : Mn",
"Points : 0",
"Range : 0.000000 - 0.000000",
"Step : 0.010000",
"Channel_info_end",
"Channel_info_start",
"Channel : Fe",
"Points : 0",
"Range : 0.000000 - 0.000000",
"Step : 0.010000",
"Channel_info_end",
"Channel_info_start",
"Channel : Cu",
"Points : 0",
"Range : 0.000000 - 0.000000",
"Step : 0.010000",
"Channel_info_end",
"Channel_info_start",
"Channel : Zn",
"Points : 0",
"Range : 0.000000 - 0.000000",
"Step : 0.010000",
"Channel_info_end",
"Channel_info_start",
"Channel : Sr",
"Points : 0",
"Range : 0.000000 - 0.000000",
"Step : 0.010000",
"Channel_info_end",
"Channel_info_start",
"Channel : Pb",
"Points : 0",
"Range : 0.000000 - 0.000000",
"Step : 0.010000",
"Channel_info_end",
"",
"Qualitative Result",
"--------------------------------------------------------------------------------",
"Element :  Ca, Rb, Au, Cr, W , Rh",
"",
"Peak List",
"--------------------------------------------------------------------------------",
"Channel               Line        keV     Net Int.(cps/uA)",
"--------------------------------------------------------------------------------",
"Na                    CaLa         0.38     0.019",
"                      RbLa         1.67     0.093",
"                      AuMa         2.15     1.546",
"                      ----         2.43     0.123",
"                      ----         2.80     0.052",
"                      CaKa         3.68     0.157",
"                      CaKb         4.02     0.021",
"                      CrKa         5.46     0.022",
"                      ----         6.22     0.033",
"                      ----         6.41     0.058",
"                      ----         6.58     0.037",
"                      AuLL         8.49     0.200",
"                      W La         8.49     0.177",
"                      W Lb1        9.67     0.142",
"                      AuLa         9.72     6.656",
"                      ----        10.28     0.081",
"                      AuLb4       11.14     0.218",
"                      AuLb1       11.45     3.537",
"                      AuLg1       13.36     0.626",
"                      AuLg2       13.77     0.169",
"                      RhKaC       19.24     0.133",
"                      RhKa        20.09     0.136",
"--------------------------------------------------------------------------------",
"",
"Quantitative Result",
"--------------------------------------------------------------------------------",
"Analyte               Result             Std.Dev. Proc.-Calc. Line Intensity(cps/uA)",
"--------------------------------------------------------------------------------",
"====[No. 1 Layer]====< Layer1               >===============================",
"Layer1                   0.000 ug/cm2    -------- Flux       -------- --------",