File: inputs/edxCalibration/edx_raw/2010/junho/BaF2 31514.20100626145838.csv
"Sample    : BaF2 31514",
"Operator  : thiago",
"Comment  : cubatao-g-policarbonato",
"Group     : kerr2007ag180cal_lt",
"Date       : 2010-06-26 14:54:24",
"",
"Mesurement Condition",
"------------------------------------------------------------------------------------",
"Instrument : 700HS2   Atmosphere : Vac.   Collimator : 10(mm)   Spin : No",
"------------------------------------------------------------------------------------",
"Analyte               TG kV   uA      FI Acq.(keV)  Anal.(keV)  Time(sec)     DT(%)",
"------------------------------------------------------------------------------------",
"Na                    Rh 50  393-Auto Al  0 - 20    0.8 - 1.2   Live -  179   16",
"",
"<Profile>",
"Channel_info_start",
"Channel : Na",
"Points : 2048",
"Range : 0.000000 - 20.48",
"Step : 0.010000",
"Channel_info_end",
"0",
"0",
"0",
"0",
"0",
"0",
"0",
"0",
"0",
"0",
"0",
"0",
"0",
"0",
"0",
"12",
"41",
"23",
"26",
"34",
"25",
"37",
"30",
"36",
"32",
"23",
"27",
"23",
"31",
"36",
"26",
"21",
"34",
"34",
"39",
"39",
"31",
"34",
"56",
"52",
"50",
"59",
"46",
"50",
"48",
"39",
"39",
"30",
"57",
"49",
"62",
"54",
"70",
"55",
"50",
"50",
"42",
"46",
"24",
"43",
"28",
"37",
"56",
"37",
"24",
"26",
"31",
"32",
"36",
"32",
"33",
"34",
"35",
"52",
"37",
"45",
"47",
"41",
"31",
"23",
"34",
"39",
"34",
"41",
"33",
"57",
"53",
"55",
"64",
"46",
"54",
"47",
"47",
"38",
"44",
"52",
"65",
"99",
"91",
"128",
"127",
"116",
"125",
"90",
"85",
"54",
"49",
"43",
"44",
"57",
"47",
"47",
"47",
"45",
"33",
"43",
"46",
"39",
"37",
"28",
"30",
"36",
"36",
"31",
"36",
"43",
"47",
"36",
"45",
"43",
"46",
"69",
"85",
"110",
"145",
"155",
"157",
"163",
"144",
"83",
"78",
"73",
"54",
"62",
"41",
"61",
"57",
"46",
"61",
"53",
"45",
"75",
"88",
"104",
"114",
"117",
"103",
"92",
"81",
"70",
"68",
"49",
"61",
"60",
"56",
"41",
"46",
"44",
"59",
"76",
"75",
"83",
"65",
"75",
"57",
"71",
"91",
"101",
"168",
"269",
"452",
"632",
"1029",
"1249",
"1426",
"1436",
"1387",
"1076",
"855",
"519",
"342",
"250",
"235",
"271",
"399",
"477",
"647",
"795",
"861",
"789",
"804",
"696",
"550",
"443",
"347",
"273",
"193",
"193",
"185",
"172",
"198",
"245",
"292",
"308",
"449",
"672",
"1116",
"1782",
"3297",
"5307",
"8422",
"11286",
"14391",
"15774",
"15920",
"13730",
"10866",
"7566",
"4873",
"2746",
"1603",
"753",
"484",
"447",
"626",
"995",
"1729",
"2897",
"4808",
"6291",
"8652",
"9351",
"10306",
"9746",
"8749",
"7082",
"5792",
"4194",
"3253",
"2270",
"1698",
"1257",
"1072",
"1130",
"1286",
"1713",
"2214",
"2477",
"2659",
"2446",
"2179",
"1768",
"1344",
"884",
"536",
"382",
"279",
"214",
"216",
"254",
"323",
"415",
"581",
"759",
"1001",
"1254",
"1427",
"1398",
"1330",
"1130",
"922",
"683",
"505",
"375",
"404",
"359",
"517",
"567",
"704",
"722",
"845",
"727",
"734",
"575",
"472",
"367",
"309",
"292",
"270",
"237",
"213",
"209",
"183",
"152",
"141",
"147",
"157",
"119",
"123",
"116",
"134",
"148",
"142",
"141",
"153",
"137",
"157",
"155",
"153",
"170",
"185",
"170",
"160",
"155",
"145",
"160",
"172",
"180",
"156",
"139",
"193",
"159",
"132",
"138",
"144",
"152",
"156",
"133",
"152",
"121",
"153",
"146",
"149",
"124",
"137",
"122",
"101",
"135",
"127",
"130",
"139",
"121",
"147",
"130",
"129",
"137",
"123",
"149",
"142",
"127",
"132",
"158",
"194",
"147",
"151",
"156",
"192",
"162",
"195",
"171",
"180",
"183",
"204",
"183",
"190",
"172",
"192",
"159",
"174",
"189",
"167",
"162",
"199",
"155",
"189",
"167",
"186",
"195",
"158",
"137",
"169",
"178",
"144",
"190",
"176",
"176",
"204",
"196",
"207",
"214",
"203",
"217",
"199",
"220",
"228",
"218",
"228",
"199",
"222",
"185",
"192",
"160",
"191",
"146",
"161",
"158",
"144",
"174",
"161",
"163",
"158",
"187",
"185",
"152",
"163",
"147",
"162",
"192",
"203",
"197",
"210",
"203",
"238",
"207",
"210",
"208",
"214",
"165",
"171",
"197",
"165",
"165",
"183",
"196",
"178",
"175",
"183",
"184",
"216",
"169",
"176",
"179",
"182",
"172",
"183",
"163",
"187",
"191",
"171",
"167",
"192",
"182",
"174",
"170",
"189",
"182",
"213",
"192",
"210",
"225",
"199",
"175",
"194",
"184",
"185",
"195",
"194",
"208",
"190",
"202",
"215",
"171",
"195",
"199",
"163",
"182",
"179",
"175",
"160",
"163",
"151",
"139",
"159",
"140",
"138",
"162",
"167",
"155",
"152",
"151",
"151",
"160",
"164",
"137",
"156",
"156",
"140",
"125",
"184",
"122",
"135",
"137",
"163",
"153",
"134",
"168",
"161",
"169",
"173",
"148",
"178",
"162",
"160",
"159",
"149",
"169",
"159",
"182",
"153",
"150",
"151",
"127",
"160",
"173",
"159",
"153",
"147",
"175",
"133",
"168",
"141",
"144",
"145",
"161",
"158",
"151",
"133",
"155",
"142",
"152",
"149",
"134",
"148",
"158",
"161",
"138",
"158",
"140",
"160",
"121",
"160",
"156",
"152",
"152",
"158",
"136",
"144",
"150",
"183",
"130",
"148",
"135",
"171",
"158",
"142",
"160",
"169",
"148",
"140",
"133",
"142",
"149",
"146",
"137",
"127",
"149",
"146",
"152",
"158",
"135",
"160",
"136",
"151",
"151",
"153",
"133",
"137",
"140",
"140",
"136",
"128",
"130",
"116",
"140",
"155",
"124",
"139",
"114",
"142",
"136",
"153",
"141",
"113",
"130",
"137",
"114",
"152",
"137",
"142",
"148",
"136",
"124",
"138",
"130",
"134",
"139",
"132",
"118",
"137",
"123",
"130",
"145",
"139",
"130",
"132",
"125",
"132",
"112",
"133",
"115",
"142",
"121",
"140",
"121",
"125",
"129",
"114",
"124",
"114",
"121",
"126",
"123",
"151",
"130",
"133",
"127",
"147",
"119",
"90",
"119",
"121",
"113",
"121",
"138",
"123",
"132",
"119",
"129",
"129",
"121",
"140",
"100",
"124",
"112",
"142",
"123",
"124",
"111",
"112",
"106",
"122",
"119",
"146",
"123",
"122",
"96",
"125",
"128",
"108",
"124",
"118",
"117",
"116",
"139",
"119",
"124",
"119",
"113",
"140",
"116",
"157",
"130",
"130",
"118",
"159",
"145",
"146",
"121",
"128",
"117",
"125",
"134",
"123",
"123",
"144",
"112",
"118",
"106",
"126",
"100",
"123",
"102",
"111",
"114",
"91",
"108",
"137",
"100",
"114",
"85",
"128",
"80",
"125",
"98",
"113",
"96",
"118",
"107",
"105",
"126",
"111",
"95",
"122",
"104",
"100",
"112",
"93",
"114",
"118",
"95",
"103",
"90",
"132",
"98",
"116",
"78",
"103",
"110",
"126",
"118",
"128",
"101",
"116",
"89",
"116",
"124",
"94",
"103",
"121",
"81",
"113",
"107",
"102",
"108",
"96",
"107",
"103",
"82",
"87",
"98",
"84",
"105",
"94",
"81",
"94",
"124",
"95",
"87",
"89",
"103",
"90",
"107",
"110",
"88",
"95",
"110",
"106",
"103",
"99",
"88",
"110",
"99",
"107",
"96",
"102",
"84",
"96",
"108",
"92",
"81",
"90",
"85",
"91",
"98",
"112",
"101",
"106",
"92",
"98",
"96",
"82",
"89",
"106",
"76",
"79",
"90",
"90",
"103",
"90",
"105",
"93",
"89",
"103",
"88",
"90",
"77",
"94",
"101",
"92",
"90",
"94",
"87",
"78",
"82",
"103",
"95",
"91",
"92",
"80",
"73",
"81",
"93",
"77",
"107",
"98",
"83",
"75",
"92",
"77",
"100",
"96",
"83",
"90",
"78",
"76",
"76",
"102",
"88",
"68",
"73",
"95",
"95",
"100",
"89",
"85",
"85",
"116",
"88",
"91",
"90",
"114",
"84",
"108",
"88",
"67",
"70",
"73",
"89",
"107",
"80",
"96",
"96",
"95",
"83",
"112",
"83",
"96",
"103",
"80",
"85",
"84",
"80",
"103",
"93",
"100",
"95",
"102",
"90",
"111",
"111",
"101",
"99",
"110",
"122",
"110",
"103",
"102",
"95",
"106",
"107",
"114",
"108",
"138",
"129",
"150",
"116",
"105",
"132",
"119",
"133",
"145",
"134",
"138",
"148",
"142",
"156",
"186",
"187",
"183",
"219",
"239",
"264",
"260",
"267",
"290",
"275",
"372",
"373",
"411",
"376",
"432",
"473",
"461",
"467",
"541",
"514",
"562",
"548",
"585",
"536",
"579",
"542",
"586",
"540",
"558",
"490",
"510",
"466",
"487",
"439",
"393",
"386",
"379",
"334",
"347",
"302",
"312",
"288",
"255",
"218",
"210",
"199",
"174",
"141",
"156",
"129",
"137",
"153",
"135",
"168",
"150",
"150",
"181",
"182",
"161",
"228",
"231",
"210",
"277",
"287",
"364",
"358",
"373",
"375",
"387",
"366",
"415",
"324",
"346",
"293",
"306",
"251",
"226",
"169",
"187",
"140",
"125",
"110",
"98",
"102",
"81",
"96",
"91",
"75",
"56876",
"Channel_info_start",
"Channel : Mg",
"Points : 0",
"Range : 0.000000 - 0.000000",
"Step : 0.010000",
"Channel_info_end",
"Channel_info_start",
"Channel : Al",
"Points : 0",
"Range : 0.000000 - 0.000000",
"Step : 0.010000",
"Channel_info_end",
"Channel_info_start",
"Channel : Si",
"Points : 0",
"Range : 0.000000 - 0.000000",
"Step : 0.010000",
"Channel_info_end",
"Channel_info_start",
"Channel : P ",
"Points : 0",
"Range : 0.000000 - 0.000000",
"Step : 0.010000",
"Channel_info_end",
"Channel_info_start",
"Channel : S ",
"Points : 0",
"Range : 0.000000 - 0.000000",
"Step : 0.010000",
"Channel_info_end",
"Channel_info_start",
"Channel : Cl",
"Points : 0",
"Range : 0.000000 - 0.000000",
"Step : 0.010000",
"Channel_info_end",
"Channel_info_start",
"Channel : K ",
"Points : 0",
"Range : 0.000000 - 0.000000",
"Step : 0.010000",
"Channel_info_end",
"Channel_info_start",
"Channel : Ca",
"Points : 0",
"Range : 0.000000 - 0.000000",
"Step : 0.010000",
"Channel_info_end",
"Channel_info_start",
"Channel : Ti",
"Points : 0",
"Range : 0.000000 - 0.000000",
"Step : 0.010000",
"Channel_info_end",
"Channel_info_start",
"Channel : V ",
"Points : 0",
"Range : 0.000000 - 0.000000",
"Step : 0.010000",
"Channel_info_end",
"Channel_info_start",
"Channel : Cr",
"Points : 0",
"Range : 0.000000 - 0.000000",
"Step : 0.010000",
"Channel_info_end",
"Channel_info_start",
"Channel : Mn",
"Points : 0",
"Range : 0.000000 - 0.000000",
"Step : 0.010000",
"Channel_info_end",
"Channel_info_start",
"Channel : Fe",
"Points : 0",
"Range : 0.000000 - 0.000000",
"Step : 0.010000",
"Channel_info_end",
"Channel_info_start",
"Channel : Cu",
"Points : 0",
"Range : 0.000000 - 0.000000",
"Step : 0.010000",
"Channel_info_end",
"Channel_info_start",
"Channel : Zn",
"Points : 0",
"Range : 0.000000 - 0.000000",
"Step : 0.010000",
"Channel_info_end",
"Channel_info_start",
"Channel : Sr",
"Points : 0",
"Range : 0.000000 - 0.000000",
"Step : 0.010000",
"Channel_info_end",
"Channel_info_start",
"Channel : Pb",
"Points : 0",
"Range : 0.000000 - 0.000000",
"Step : 0.010000",
"Channel_info_end",
"",
"Qualitative Result",
"--------------------------------------------------------------------------------",
"Element :  P , Ba, Ca, Te, Pr, Ru",
"",
"Peak List",
"--------------------------------------------------------------------------------",
"Channel               Line        keV     Net Int.(cps/uA)",
"--------------------------------------------------------------------------------",
"Na                    P Ka         2.00     0.017",
"                      BaLaESC      2.72     0.023",
"                      BaLb1ESC     3.07     0.012",
"                      CaKa         3.69     0.279",
"                      BaLL         3.96     0.098",
"                      TeLb1        3.96     0.042",
"                      BaLa         4.47     3.261",
"                      BaLb1        4.84     2.091",
"                      BaLb2        5.16     0.513",
"                      BaLg1        5.54     0.196",
"                      PrLb1        5.54     0.055",
"                      BaLg2        5.80     0.140",
"                      RuKa        19.24     0.127",
"                      ----        19.53     0.042",
"                      ----        20.04     0.083",
"--------------------------------------------------------------------------------",
"",
"Quantitative Result",
"--------------------------------------------------------------------------------",
"Analyte               Result             Std.Dev. Proc.-Calc. Line Intensity(cps/uA)",
"--------------------------------------------------------------------------------",
"====[No. 1 Layer]====< Layer1               >===============================",
"Layer1                   0.000 ug/cm2    -------- Flux       -------- --------",