File: inputs/edxCalibration/edx_raw/2010/junho/BaF2 31515.20100626150250.csv
"Sample    : BaF2 31515",
"Operator  : thiago",
"Comment  : cubatao-g-policarbonato",
"Group     : kerr2007ag180cal_lt",
"Date       : 2010-06-26 14:58:37",
"",
"Mesurement Condition",
"------------------------------------------------------------------------------------",
"Instrument : 700HS2   Atmosphere : Vac.   Collimator : 10(mm)   Spin : No",
"------------------------------------------------------------------------------------",
"Analyte               TG kV   uA      FI Acq.(keV)  Anal.(keV)  Time(sec)     DT(%)",
"------------------------------------------------------------------------------------",
"Na                    Rh 50  393-Auto Al  0 - 20    0.8 - 1.2   Live -  179   15",
"",
"<Profile>",
"Channel_info_start",
"Channel : Na",
"Points : 2048",
"Range : 0.000000 - 20.48",
"Step : 0.010000",
"Channel_info_end",
"0",
"0",
"0",
"0",
"0",
"0",
"0",
"0",
"0",
"0",
"0",
"0",
"0",
"0",
"0",
"15",
"32",
"28",
"28",
"27",
"28",
"37",
"29",
"22",
"24",
"22",
"24",
"29",
"32",
"17",
"26",
"24",
"44",
"32",
"29",
"34",
"23",
"43",
"46",
"57",
"52",
"47",
"64",
"53",
"41",
"34",
"31",
"43",
"47",
"53",
"70",
"63",
"51",
"49",
"63",
"49",
"45",
"40",
"36",
"33",
"28",
"37",
"25",
"36",
"36",
"31",
"33",
"32",
"31",
"38",
"31",
"29",
"35",
"44",
"53",
"46",
"33",
"36",
"39",
"33",
"20",
"33",
"33",
"50",
"40",
"39",
"43",
"64",
"47",
"67",
"50",
"48",
"48",
"36",
"55",
"49",
"59",
"86",
"108",
"90",
"150",
"164",
"132",
"95",
"77",
"56",
"47",
"39",
"40",
"38",
"46",
"55",
"41",
"31",
"31",
"36",
"43",
"29",
"29",
"28",
"31",
"33",
"35",
"32",
"33",
"39",
"29",
"35",
"43",
"33",
"50",
"68",
"72",
"111",
"133",
"157",
"164",
"128",
"129",
"100",
"81",
"62",
"48",
"45",
"41",
"35",
"43",
"39",
"39",
"44",
"71",
"59",
"83",
"94",
"94",
"105",
"114",
"92",
"61",
"75",
"43",
"62",
"60",
"55",
"52",
"50",
"48",
"49",
"45",
"57",
"65",
"69",
"61",
"59",
"50",
"91",
"83",
"128",
"136",
"243",
"433",
"682",
"1001",
"1233",
"1488",
"1462",
"1448",
"1102",
"822",
"518",
"347",
"251",
"252",
"259",
"374",
"444",
"653",
"796",
"846",
"821",
"754",
"600",
"501",
"379",
"286",
"258",
"192",
"159",
"180",
"191",
"180",
"178",
"248",
"317",
"398",
"607",
"1026",
"1727",
"3036",
"4993",
"7885",
"10443",
"13508",
"14456",
"14863",
"12620",
"10242",
"7140",
"4584",
"2658",
"1400",
"786",
"460",
"413",
"549",
"953",
"1617",
"2750",
"4234",
"5970",
"8153",
"8849",
"9421",
"9098",
"8076",
"6512",
"5384",
"3962",
"3089",
"2124",
"1468",
"1148",
"1034",
"1010",
"1305",
"1541",
"2068",
"2353",
"2443",
"2305",
"2018",
"1648",
"1198",
"792",
"523",
"363",
"239",
"218",
"211",
"206",
"295",
"417",
"553",
"774",
"975",
"1142",
"1328",
"1276",
"1237",
"1055",
"794",
"599",
"460",
"332",
"353",
"353",
"493",
"559",
"629",
"721",
"728",
"699",
"670",
"564",
"458",
"367",
"306",
"269",
"231",
"228",
"235",
"181",
"183",
"165",
"150",
"151",
"123",
"127",
"133",
"154",
"136",
"133",
"144",
"134",
"148",
"144",
"164",
"163",
"158",
"150",
"136",
"177",
"186",
"154",
"163",
"142",
"175",
"152",
"128",
"129",
"170",
"162",
"146",
"128",
"156",
"142",
"138",
"128",
"117",
"143",
"118",
"132",
"146",
"129",
"118",
"144",
"111",
"119",
"151",
"126",
"129",
"112",
"166",
"143",
"133",
"142",
"141",
"156",
"151",
"138",
"164",
"148",
"179",
"141",
"178",
"145",
"147",
"157",
"155",
"147",
"193",
"156",
"182",
"169",
"179",
"169",
"181",
"166",
"154",
"148",
"165",
"188",
"191",
"190",
"178",
"158",
"167",
"181",
"153",
"143",
"181",
"168",
"183",
"188",
"166",
"177",
"207",
"204",
"212",
"208",
"232",
"212",
"238",
"229",
"232",
"223",
"228",
"204",
"196",
"201",
"227",
"156",
"187",
"180",
"143",
"152",
"167",
"142",
"183",
"159",
"151",
"159",
"147",
"155",
"140",
"174",
"184",
"183",
"189",
"211",
"238",
"231",
"242",
"224",
"195",
"196",
"201",
"203",
"181",
"180",
"178",
"162",
"195",
"160",
"175",
"163",
"168",
"177",
"155",
"182",
"177",
"180",
"184",
"178",
"158",
"159",
"165",
"178",
"155",
"178",
"170",
"195",
"195",
"147",
"186",
"181",
"183",
"196",
"187",
"188",
"190",
"186",
"191",
"176",
"160",
"186",
"193",
"184",
"181",
"214",
"194",
"180",
"183",
"187",
"176",
"156",
"160",
"163",
"174",
"158",
"148",
"166",
"172",
"126",
"178",
"147",
"160",
"171",
"144",
"148",
"142",
"140",
"160",
"118",
"158",
"151",
"162",
"148",
"153",
"134",
"155",
"145",
"169",
"156",
"150",
"141",
"159",
"167",
"160",
"164",
"131",
"159",
"152",
"148",
"147",
"150",
"177",
"151",
"163",
"158",
"168",
"142",
"163",
"155",
"139",
"153",
"151",
"144",
"166",
"130",
"157",
"151",
"139",
"150",
"139",
"153",
"151",
"134",
"148",
"154",
"122",
"141",
"143",
"130",
"147",
"140",
"129",
"146",
"146",
"142",
"138",
"166",
"127",
"155",
"141",
"179",
"156",
"164",
"150",
"130",
"154",
"163",
"132",
"139",
"142",
"135",
"156",
"118",
"141",
"139",
"151",
"155",
"135",
"145",
"170",
"142",
"126",
"143",
"164",
"152",
"140",
"148",
"139",
"151",
"128",
"139",
"124",
"112",
"131",
"134",
"122",
"120",
"151",
"146",
"157",
"140",
"136",
"144",
"152",
"122",
"117",
"134",
"121",
"129",
"119",
"127",
"118",
"134",
"106",
"128",
"160",
"110",
"107",
"123",
"145",
"126",
"148",
"132",
"130",
"135",
"118",
"139",
"128",
"148",
"143",
"134",
"135",
"132",
"148",
"115",
"141",
"119",
"128",
"127",
"116",
"133",
"143",
"155",
"126",
"115",
"136",
"136",
"141",
"118",
"134",
"112",
"136",
"117",
"132",
"120",
"147",
"143",
"144",
"133",
"93",
"135",
"111",
"131",
"127",
"136",
"119",
"111",
"136",
"105",
"134",
"88",
"124",
"128",
"124",
"128",
"123",
"145",
"128",
"103",
"115",
"93",
"121",
"134",
"124",
"109",
"121",
"105",
"139",
"124",
"127",
"127",
"133",
"120",
"128",
"124",
"132",
"116",
"132",
"130",
"151",
"130",
"138",
"120",
"133",
"130",
"151",
"114",
"123",
"120",
"119",
"106",
"116",
"133",
"112",
"123",
"108",
"134",
"97",
"133",
"97",
"107",
"112",
"115",
"91",
"117",
"109",
"98",
"112",
"111",
"115",
"117",
"133",
"104",
"99",
"106",
"100",
"98",
"96",
"117",
"98",
"110",
"120",
"95",
"105",
"92",
"105",
"100",
"98",
"94",
"111",
"80",
"102",
"97",
"88",
"92",
"105",
"107",
"102",
"100",
"106",
"119",
"109",
"119",
"119",
"92",
"85",
"96",
"100",
"81",
"103",
"92",
"93",
"93",
"95",
"95",
"85",
"103",
"109",
"96",
"109",
"92",
"102",
"103",
"100",
"112",
"106",
"97",
"111",
"103",
"99",
"96",
"111",
"90",
"94",
"103",
"97",
"91",
"110",
"108",
"104",
"81",
"87",
"95",
"100",
"91",
"99",
"108",
"77",
"80",
"80",
"99",
"88",
"99",
"93",
"90",
"84",
"106",
"106",
"96",
"77",
"103",
"103",
"75",
"108",
"102",
"97",
"94",
"83",
"83",
"99",
"85",
"88",
"87",
"84",
"81",
"80",
"98",
"90",
"92",
"110",
"95",
"88",
"69",
"102",
"84",
"94",
"74",
"107",
"74",
"81",
"102",
"77",
"85",
"80",
"90",
"85",
"98",
"88",
"85",
"94",
"92",
"96",
"88",
"77",
"76",
"95",
"74",
"87",
"85",
"77",
"86",
"79",
"86",
"80",
"75",
"87",
"76",
"85",
"72",
"115",
"80",
"72",
"86",
"91",
"79",
"94",
"80",
"114",
"88",
"90",
"109",
"90",
"81",
"80",
"88",
"74",
"95",
"109",
"79",
"99",
"95",
"97",
"100",
"102",
"98",
"79",
"112",
"103",
"108",
"103",
"102",
"109",
"104",
"110",
"114",
"127",
"121",
"109",
"128",
"111",
"120",
"119",
"122",
"115",
"120",
"133",
"134",
"146",
"147",
"143",
"144",
"191",
"177",
"201",
"227",
"248",
"199",
"255",
"259",
"324",
"305",
"332",
"342",
"377",
"365",
"448",
"487",
"533",
"526",
"494",
"491",
"575",
"514",
"562",
"588",
"600",
"568",
"544",
"560",
"579",
"526",
"509",
"457",
"474",
"458",
"439",
"390",
"433",
"332",
"349",
"302",
"281",
"240",
"220",
"212",
"216",
"177",
"187",
"182",
"176",
"144",
"139",
"168",
"142",
"136",
"151",
"138",
"165",
"174",
"200",
"199",
"232",
"241",
"261",
"299",
"320",
"334",
"363",
"377",
"398",
"341",
"362",
"350",
"368",
"267",
"274",
"252",
"239",
"170",
"183",
"135",
"119",
"105",
"103",
"91",
"95",
"69",
"88",
"87",
"56336",
"Channel_info_start",
"Channel : Mg",
"Points : 0",
"Range : 0.000000 - 0.000000",
"Step : 0.010000",
"Channel_info_end",
"Channel_info_start",
"Channel : Al",
"Points : 0",
"Range : 0.000000 - 0.000000",
"Step : 0.010000",
"Channel_info_end",
"Channel_info_start",
"Channel : Si",
"Points : 0",
"Range : 0.000000 - 0.000000",
"Step : 0.010000",
"Channel_info_end",
"Channel_info_start",
"Channel : P ",
"Points : 0",
"Range : 0.000000 - 0.000000",
"Step : 0.010000",
"Channel_info_end",
"Channel_info_start",
"Channel : S ",
"Points : 0",
"Range : 0.000000 - 0.000000",
"Step : 0.010000",
"Channel_info_end",
"Channel_info_start",
"Channel : Cl",
"Points : 0",
"Range : 0.000000 - 0.000000",
"Step : 0.010000",
"Channel_info_end",
"Channel_info_start",
"Channel : K ",
"Points : 0",
"Range : 0.000000 - 0.000000",
"Step : 0.010000",
"Channel_info_end",
"Channel_info_start",
"Channel : Ca",
"Points : 0",
"Range : 0.000000 - 0.000000",
"Step : 0.010000",
"Channel_info_end",
"Channel_info_start",
"Channel : Ti",
"Points : 0",
"Range : 0.000000 - 0.000000",
"Step : 0.010000",
"Channel_info_end",
"Channel_info_start",
"Channel : V ",
"Points : 0",
"Range : 0.000000 - 0.000000",
"Step : 0.010000",
"Channel_info_end",
"Channel_info_start",
"Channel : Cr",
"Points : 0",
"Range : 0.000000 - 0.000000",
"Step : 0.010000",
"Channel_info_end",
"Channel_info_start",
"Channel : Mn",
"Points : 0",
"Range : 0.000000 - 0.000000",
"Step : 0.010000",
"Channel_info_end",
"Channel_info_start",
"Channel : Fe",
"Points : 0",
"Range : 0.000000 - 0.000000",
"Step : 0.010000",
"Channel_info_end",
"Channel_info_start",
"Channel : Cu",
"Points : 0",
"Range : 0.000000 - 0.000000",
"Step : 0.010000",
"Channel_info_end",
"Channel_info_start",
"Channel : Zn",
"Points : 0",
"Range : 0.000000 - 0.000000",
"Step : 0.010000",
"Channel_info_end",
"Channel_info_start",
"Channel : Sr",
"Points : 0",
"Range : 0.000000 - 0.000000",
"Step : 0.010000",
"Channel_info_end",
"Channel_info_start",
"Channel : Pb",
"Points : 0",
"Range : 0.000000 - 0.000000",
"Step : 0.010000",
"Channel_info_end",
"",
"Qualitative Result",
"--------------------------------------------------------------------------------",
"Element :  Na, P , Ba, Ca, Te, Pr, Rh",
"",
"Peak List",
"--------------------------------------------------------------------------------",
"Channel               Line        keV     Net Int.(cps/uA)",
"--------------------------------------------------------------------------------",
"Na                    NaKa         1.00     0.005",
"                      P Ka         2.01     0.021",
"                      BaLaESC      2.72     0.024",
"                      BaLb1ESC     3.11     0.012",
"                      CaKa         3.69     0.284",
"                      BaLL         3.97     0.091",
"                      TeLb1        3.97     0.050",
"                      BaLa         4.48     3.037",
"                      BaLb1        4.84     1.914",
"                      BaLb2        5.16     0.465",
"                      BaLg1        5.52     0.182",
"                      PrLb1        5.52     0.066",
"                      BaLg2        5.78     0.129",
"                      RhKaC       19.21     0.127",
"                      ----        19.49     0.047",
"                      RhKa        20.08     0.090",
"--------------------------------------------------------------------------------",
"",
"Quantitative Result",
"--------------------------------------------------------------------------------",
"Analyte               Result             Std.Dev. Proc.-Calc. Line Intensity(cps/uA)",
"--------------------------------------------------------------------------------",
"====[No. 1 Layer]====< Layer1               >===============================",
"Layer1                   4.597 ug/cm2    -------- Flux       -------- --------",
"Na                       4.597 ug/cm2    -------- ********** -------- --------",