File: inputs/edxCalibration/edx_raw/2010/junho/BaF2 31514.20100526004310.csv
"Sample    : BaF2 31514",
"Operator  : luisf",
"Comment  : cubatao-g-policarbonato",
"Group     : kerr2007ag180cal_lt",
"Date       : 2010-05-26 00:38:59",
"",
"Mesurement Condition",
"------------------------------------------------------------------------------------",
"Instrument : 700HS2   Atmosphere : Vac.   Collimator : 10(mm)   Spin : No",
"------------------------------------------------------------------------------------",
"Analyte               TG kV   uA      FI Acq.(keV)  Anal.(keV)  Time(sec)     DT(%)",
"------------------------------------------------------------------------------------",
"Na                    Rh 50  360-Auto Al  0 - 20    0.8 - 1.2   Live -  179   15",
"",
"<Profile>",
"Channel_info_start",
"Channel : Na",
"Points : 2048",
"Range : 0.000000 - 20.48",
"Step : 0.010000",
"Channel_info_end",
"0",
"0",
"0",
"0",
"0",
"0",
"0",
"0",
"0",
"0",
"0",
"0",
"0",
"0",
"0",
"16",
"19",
"33",
"24",
"24",
"33",
"25",
"28",
"28",
"21",
"13",
"27",
"28",
"23",
"29",
"39",
"22",
"29",
"24",
"24",
"25",
"28",
"37",
"37",
"52",
"60",
"42",
"45",
"40",
"44",
"37",
"37",
"50",
"50",
"46",
"47",
"60",
"64",
"57",
"49",
"40",
"49",
"35",
"31",
"36",
"36",
"22",
"44",
"29",
"26",
"25",
"37",
"31",
"29",
"29",
"36",
"31",
"26",
"36",
"48",
"27",
"35",
"32",
"42",
"25",
"29",
"36",
"41",
"34",
"36",
"33",
"49",
"54",
"46",
"44",
"29",
"51",
"53",
"44",
"46",
"49",
"49",
"74",
"115",
"133",
"136",
"130",
"107",
"97",
"66",
"37",
"39",
"27",
"44",
"39",
"25",
"37",
"33",
"34",
"53",
"34",
"33",
"34",
"29",
"32",
"28",
"34",
"29",
"35",
"32",
"37",
"26",
"32",
"33",
"53",
"53",
"77",
"81",
"107",
"151",
"147",
"153",
"139",
"108",
"92",
"78",
"64",
"51",
"42",
"39",
"39",
"37",
"46",
"44",
"50",
"68",
"51",
"76",
"83",
"98",
"98",
"88",
"83",
"80",
"64",
"64",
"59",
"64",
"51",
"60",
"60",
"56",
"56",
"58",
"53",
"57",
"65",
"63",
"61",
"82",
"69",
"70",
"123",
"175",
"264",
"450",
"641",
"902",
"1192",
"1395",
"1409",
"1293",
"977",
"703",
"442",
"299",
"207",
"220",
"276",
"337",
"509",
"620",
"739",
"832",
"795",
"740",
"642",
"507",
"355",
"301",
"210",
"200",
"151",
"172",
"173",
"162",
"216",
"278",
"344",
"463",
"635",
"1095",
"1763",
"3267",
"5116",
"8243",
"10944",
"13611",
"14718",
"15099",
"12335",
"10067",
"6834",
"4384",
"2497",
"1319",
"695",
"407",
"407",
"607",
"999",
"1815",
"2942",
"4523",
"6191",
"8176",
"8893",
"9547",
"8879",
"7926",
"6429",
"5020",
"3776",
"2789",
"1958",
"1554",
"1069",
"1014",
"1038",
"1278",
"1721",
"2148",
"2333",
"2557",
"2340",
"2090",
"1544",
"1120",
"805",
"483",
"354",
"231",
"215",
"209",
"241",
"303",
"390",
"544",
"760",
"951",
"1167",
"1381",
"1250",
"1232",
"1038",
"751",
"587",
"447",
"388",
"316",
"369",
"440",
"522",
"646",
"692",
"780",
"650",
"606",
"526",
"393",
"302",
"277",
"232",
"249",
"240",
"210",
"200",
"178",
"184",
"151",
"124",
"139",
"101",
"129",
"145",
"130",
"120",
"118",
"119",
"137",
"145",
"176",
"156",
"166",
"170",
"185",
"151",
"168",
"157",
"181",
"163",
"146",
"162",
"145",
"161",
"130",
"122",
"146",
"141",
"136",
"145",
"117",
"122",
"143",
"134",
"133",
"131",
"121",
"117",
"112",
"119",
"119",
"130",
"127",
"139",
"134",
"115",
"138",
"125",
"134",
"121",
"138",
"146",
"143",
"158",
"136",
"153",
"121",
"134",
"147",
"156",
"188",
"136",
"162",
"170",
"155",
"160",
"134",
"148",
"162",
"171",
"163",
"147",
"145",
"187",
"169",
"147",
"161",
"168",
"187",
"145",
"159",
"172",
"166",
"163",
"147",
"171",
"185",
"160",
"159",
"188",
"170",
"175",
"193",
"198",
"238",
"216",
"244",
"206",
"242",
"247",
"198",
"192",
"183",
"208",
"183",
"170",
"183",
"149",
"160",
"157",
"158",
"161",
"133",
"154",
"132",
"137",
"141",
"182",
"139",
"181",
"156",
"191",
"208",
"196",
"208",
"207",
"246",
"198",
"209",
"193",
"178",
"159",
"149",
"163",
"171",
"167",
"163",
"175",
"195",
"153",
"161",
"183",
"169",
"168",
"158",
"184",
"155",
"154",
"156",
"183",
"169",
"149",
"166",
"182",
"183",
"196",
"172",
"192",
"209",
"162",
"179",
"170",
"211",
"178",
"179",
"169",
"200",
"196",
"158",
"187",
"146",
"191",
"195",
"171",
"188",
"190",
"198",
"145",
"171",
"182",
"157",
"165",
"154",
"149",
"138",
"153",
"169",
"122",
"153",
"146",
"153",
"135",
"168",
"154",
"137",
"130",
"151",
"149",
"144",
"144",
"141",
"142",
"133",
"131",
"145",
"133",
"148",
"142",
"145",
"139",
"146",
"139",
"141",
"154",
"148",
"134",
"151",
"156",
"145",
"136",
"147",
"142",
"151",
"137",
"158",
"150",
"148",
"157",
"133",
"133",
"163",
"155",
"156",
"147",
"118",
"127",
"156",
"143",
"144",
"135",
"141",
"147",
"141",
"155",
"136",
"136",
"137",
"151",
"159",
"142",
"157",
"143",
"135",
"136",
"131",
"134",
"156",
"155",
"135",
"154",
"136",
"138",
"135",
"119",
"137",
"124",
"138",
"147",
"137",
"135",
"136",
"135",
"125",
"130",
"139",
"125",
"134",
"126",
"145",
"121",
"134",
"115",
"112",
"120",
"160",
"120",
"133",
"113",
"134",
"133",
"120",
"131",
"132",
"136",
"130",
"121",
"138",
"123",
"122",
"125",
"125",
"105",
"113",
"143",
"127",
"110",
"134",
"132",
"143",
"107",
"129",
"127",
"142",
"136",
"127",
"120",
"129",
"117",
"120",
"124",
"131",
"127",
"110",
"131",
"131",
"127",
"125",
"118",
"127",
"109",
"124",
"130",
"141",
"130",
"121",
"132",
"120",
"124",
"135",
"109",
"139",
"109",
"129",
"127",
"126",
"108",
"142",
"106",
"144",
"131",
"127",
"121",
"114",
"120",
"127",
"111",
"134",
"108",
"119",
"132",
"118",
"99",
"121",
"127",
"111",
"120",
"125",
"139",
"111",
"119",
"123",
"101",
"105",
"107",
"108",
"105",
"106",
"121",
"92",
"112",
"121",
"119",
"105",
"109",
"110",
"117",
"119",
"121",
"101",
"118",
"127",
"113",
"117",
"118",
"129",
"113",
"109",
"137",
"131",
"122",
"138",
"130",
"115",
"119",
"141",
"124",
"112",
"103",
"96",
"103",
"107",
"110",
"105",
"96",
"107",
"87",
"88",
"94",
"101",
"102",
"108",
"94",
"121",
"99",
"90",
"96",
"106",
"97",
"101",
"101",
"86",
"100",
"130",
"96",
"124",
"94",
"102",
"95",
"94",
"112",
"89",
"77",
"94",
"94",
"105",
"92",
"111",
"95",
"102",
"98",
"94",
"85",
"83",
"88",
"84",
"101",
"94",
"85",
"113",
"64",
"94",
"94",
"109",
"87",
"87",
"88",
"111",
"95",
"92",
"98",
"109",
"92",
"81",
"82",
"100",
"101",
"70",
"103",
"107",
"98",
"98",
"84",
"92",
"86",
"93",
"85",
"96",
"86",
"103",
"99",
"109",
"87",
"84",
"86",
"77",
"87",
"97",
"103",
"88",
"74",
"72",
"88",
"62",
"98",
"83",
"85",
"96",
"81",
"98",
"86",
"80",
"78",
"82",
"72",
"80",
"72",
"87",
"82",
"87",
"72",
"77",
"99",
"87",
"73",
"94",
"96",
"81",
"88",
"94",
"94",
"82",
"85",
"100",
"87",
"78",
"77",
"82",
"100",
"83",
"68",
"81",
"70",
"86",
"82",
"85",
"75",
"87",
"80",
"96",
"70",
"80",
"105",
"76",
"86",
"66",
"80",
"85",
"84",
"88",
"90",
"77",
"89",
"92",
"86",
"72",
"92",
"76",
"75",
"76",
"85",
"80",
"87",
"76",
"72",
"76",
"98",
"86",
"72",
"84",
"80",
"84",
"75",
"88",
"93",
"74",
"92",
"72",
"97",
"71",
"95",
"96",
"63",
"92",
"84",
"83",
"78",
"97",
"101",
"82",
"84",
"86",
"86",
"96",
"101",
"113",
"99",
"95",
"100",
"98",
"95",
"97",
"78",
"109",
"96",
"109",
"101",
"86",
"86",
"121",
"97",
"117",
"125",
"120",
"134",
"139",
"136",
"143",
"155",
"144",
"158",
"181",
"170",
"163",
"174",
"182",
"231",
"260",
"238",
"297",
"284",
"292",
"362",
"379",
"381",
"389",
"450",
"434",
"463",
"506",
"501",
"564",
"528",
"500",
"496",
"556",
"540",
"490",
"501",
"503",
"424",
"455",
"465",
"409",
"399",
"403",
"348",
"356",
"306",
"290",
"246",
"290",
"227",
"203",
"188",
"174",
"183",
"178",
"149",
"151",
"117",
"158",
"123",
"139",
"121",
"112",
"131",
"180",
"167",
"185",
"207",
"218",
"261",
"304",
"300",
"337",
"285",
"326",
"344",
"365",
"362",
"325",
"332",
"333",
"243",
"243",
"210",
"192",
"144",
"156",
"131",
"121",
"90",
"86",
"81",
"90",
"61",
"77",
"62",
"52486",
"Channel_info_start",
"Channel : Mg",
"Points : 0",
"Range : 0.000000 - 0.000000",
"Step : 0.010000",
"Channel_info_end",
"Channel_info_start",
"Channel : Al",
"Points : 0",
"Range : 0.000000 - 0.000000",
"Step : 0.010000",
"Channel_info_end",
"Channel_info_start",
"Channel : Si",
"Points : 0",
"Range : 0.000000 - 0.000000",
"Step : 0.010000",
"Channel_info_end",
"Channel_info_start",
"Channel : P ",
"Points : 0",
"Range : 0.000000 - 0.000000",
"Step : 0.010000",
"Channel_info_end",
"Channel_info_start",
"Channel : S ",
"Points : 0",
"Range : 0.000000 - 0.000000",
"Step : 0.010000",
"Channel_info_end",
"Channel_info_start",
"Channel : Cl",
"Points : 0",
"Range : 0.000000 - 0.000000",
"Step : 0.010000",
"Channel_info_end",
"Channel_info_start",
"Channel : K ",
"Points : 0",
"Range : 0.000000 - 0.000000",
"Step : 0.010000",
"Channel_info_end",
"Channel_info_start",
"Channel : Ca",
"Points : 0",
"Range : 0.000000 - 0.000000",
"Step : 0.010000",
"Channel_info_end",
"Channel_info_start",
"Channel : Ti",
"Points : 0",
"Range : 0.000000 - 0.000000",
"Step : 0.010000",
"Channel_info_end",
"Channel_info_start",
"Channel : V ",
"Points : 0",
"Range : 0.000000 - 0.000000",
"Step : 0.010000",
"Channel_info_end",
"Channel_info_start",
"Channel : Cr",
"Points : 0",
"Range : 0.000000 - 0.000000",
"Step : 0.010000",
"Channel_info_end",
"Channel_info_start",
"Channel : Mn",
"Points : 0",
"Range : 0.000000 - 0.000000",
"Step : 0.010000",
"Channel_info_end",
"Channel_info_start",
"Channel : Fe",
"Points : 0",
"Range : 0.000000 - 0.000000",
"Step : 0.010000",
"Channel_info_end",
"Channel_info_start",
"Channel : Cu",
"Points : 0",
"Range : 0.000000 - 0.000000",
"Step : 0.010000",
"Channel_info_end",
"Channel_info_start",
"Channel : Zn",
"Points : 0",
"Range : 0.000000 - 0.000000",
"Step : 0.010000",
"Channel_info_end",
"Channel_info_start",
"Channel : Sr",
"Points : 0",
"Range : 0.000000 - 0.000000",
"Step : 0.010000",
"Channel_info_end",
"Channel_info_start",
"Channel : Pb",
"Points : 0",
"Range : 0.000000 - 0.000000",
"Step : 0.010000",
"Channel_info_end",
"",
"Qualitative Result",
"--------------------------------------------------------------------------------",
"Element :  P , Ba, Ca, Pr, Ru",
"",
"Peak List",
"--------------------------------------------------------------------------------",
"Channel               Line        keV     Net Int.(cps/uA)",
"--------------------------------------------------------------------------------",
"Na                    P Ka         1.99     0.021",
"                      BaLaESC      2.71     0.024",
"                      CaKa         3.70     0.286",
"                      BaLL         3.96     0.151",
"                      BaLa         4.47     3.330",
"                      BaLb1        4.84     2.137",
"                      BaLb2        5.17     0.515",
"                      BaLg1        5.52     0.200",
"                      PrLb1        5.52     0.079",
"                      BaLg2        5.80     0.142",
"                      ----        19.12     0.126",
"                      RuKa        19.36     0.088",
"                      ----        19.88     0.028",
"--------------------------------------------------------------------------------",
"",
"Quantitative Result",
"--------------------------------------------------------------------------------",
"Analyte               Result             Std.Dev. Proc.-Calc. Line Intensity(cps/uA)",
"--------------------------------------------------------------------------------",
"====[No. 1 Layer]====< Layer1               >===============================",
"Layer1                   0.000 ug/cm2    -------- Flux       -------- --------",