File: inputs/edxCalibration/edx_raw/2010/junho/Bi 15773.20100611040738.csv
"Sample    : Bi 15773",
"Operator  : Luís",
"Comment  : cubatao-g-policarbonato",
"Group     : kerr2007ag180cal_lt",
"Date       : 2010-06-11 04:03:37",
"",
"Mesurement Condition",
"------------------------------------------------------------------------------------",
"Instrument : 700HS2   Atmosphere : Vac.   Collimator : 10(mm)   Spin : No",
"------------------------------------------------------------------------------------",
"Analyte               TG kV   uA      FI Acq.(keV)  Anal.(keV)  Time(sec)     DT(%)",
"------------------------------------------------------------------------------------",
"Na                    Rh 50  168-Auto Al  0 - 20    0.8 - 1.2   Live -  179   14",
"",
"<Profile>",
"Channel_info_start",
"Channel : Na",
"Points : 2048",
"Range : 0.000000 - 20.48",
"Step : 0.010000",
"Channel_info_end",
"0",
"0",
"0",
"0",
"0",
"0",
"0",
"0",
"0",
"0",
"0",
"0",
"0",
"0",
"0",
"10",
"19",
"33",
"26",
"25",
"36",
"24",
"26",
"24",
"36",
"27",
"25",
"44",
"25",
"39",
"28",
"56",
"57",
"79",
"93",
"92",
"82",
"67",
"70",
"59",
"70",
"58",
"60",
"46",
"45",
"30",
"39",
"42",
"45",
"44",
"42",
"25",
"38",
"28",
"26",
"22",
"28",
"23",
"30",
"32",
"16",
"26",
"28",
"24",
"28",
"24",
"24",
"25",
"22",
"27",
"31",
"39",
"26",
"26",
"32",
"25",
"36",
"16",
"26",
"35",
"40",
"29",
"36",
"45",
"54",
"37",
"57",
"49",
"54",
"77",
"95",
"111",
"189",
"211",
"241",
"276",
"283",
"228",
"213",
"179",
"158",
"160",
"144",
"131",
"123",
"136",
"121",
"123",
"168",
"166",
"221",
"235",
"255",
"260",
"298",
"324",
"433",
"794",
"1356",
"2143",
"3014",
"3439",
"4004",
"3815",
"3919",
"3425",
"3210",
"2824",
"2276",
"1704",
"1174",
"738",
"502",
"321",
"341",
"343",
"388",
"406",
"409",
"313",
"262",
"191",
"143",
"63",
"72",
"70",
"71",
"62",
"80",
"78",
"73",
"68",
"59",
"78",
"53",
"69",
"85",
"107",
"118",
"146",
"170",
"146",
"159",
"167",
"144",
"110",
"83",
"60",
"37",
"42",
"30",
"29",
"14",
"12",
"28",
"23",
"38",
"32",
"81",
"99",
"211",
"311",
"428",
"513",
"655",
"593",
"583",
"414",
"304",
"187",
"132",
"86",
"69",
"66",
"51",
"49",
"68",
"68",
"96",
"100",
"107",
"95",
"84",
"76",
"55",
"43",
"40",
"27",
"22",
"16",
"23",
"15",
"13",
"21",
"17",
"36",
"26",
"30",
"28",
"30",
"27",
"30",
"28",
"28",
"43",
"43",
"43",
"32",
"53",
"37",
"41",
"38",
"33",
"30",
"38",
"25",
"39",
"50",
"36",
"31",
"43",
"37",
"43",
"38",
"43",
"27",
"26",
"44",
"38",
"35",
"29",
"24",
"40",
"40",
"38",
"44",
"31",
"29",
"38",
"35",
"38",
"32",
"36",
"39",
"42",
"37",
"30",
"50",
"36",
"51",
"41",
"44",
"50",
"46",
"51",
"45",
"50",
"55",
"62",
"64",
"65",
"60",
"69",
"78",
"85",
"89",
"91",
"64",
"64",
"58",
"76",
"53",
"82",
"70",
"60",
"57",
"65",
"59",
"56",
"63",
"70",
"49",
"70",
"55",
"63",
"65",
"53",
"68",
"80",
"70",
"73",
"67",
"59",
"63",
"59",
"66",
"76",
"59",
"87",
"80",
"76",
"57",
"78",
"70",
"81",
"79",
"74",
"78",
"69",
"79",
"74",
"72",
"51",
"74",
"73",
"64",
"72",
"74",
"70",
"64",
"84",
"76",
"95",
"64",
"65",
"70",
"79",
"74",
"91",
"79",
"68",
"66",
"57",
"67",
"60",
"62",
"76",
"90",
"80",
"71",
"74",
"99",
"70",
"78",
"86",
"91",
"68",
"70",
"71",
"79",
"85",
"82",
"92",
"80",
"99",
"89",
"95",
"85",
"87",
"84",
"109",
"100",
"92",
"99",
"89",
"92",
"106",
"86",
"78",
"86",
"90",
"80",
"100",
"93",
"87",
"94",
"120",
"87",
"103",
"93",
"119",
"123",
"95",
"112",
"135",
"126",
"86",
"89",
"93",
"76",
"81",
"73",
"91",
"78",
"87",
"104",
"67",
"86",
"86",
"83",
"67",
"96",
"76",
"86",
"90",
"117",
"126",
"113",
"112",
"123",
"110",
"112",
"152",
"125",
"124",
"114",
"116",
"95",
"118",
"103",
"93",
"86",
"105",
"106",
"113",
"116",
"97",
"124",
"106",
"99",
"106",
"122",
"105",
"122",
"117",
"82",
"95",
"101",
"111",
"94",
"103",
"149",
"187",
"206",
"274",
"316",
"389",
"471",
"553",
"623",
"614",
"614",
"632",
"552",
"492",
"407",
"336",
"273",
"217",
"160",
"165",
"132",
"121",
"117",
"126",
"95",
"89",
"105",
"90",
"104",
"108",
"82",
"93",
"70",
"86",
"73",
"89",
"79",
"106",
"93",
"85",
"92",
"83",
"85",
"79",
"96",
"76",
"90",
"81",
"80",
"90",
"105",
"66",
"95",
"74",
"93",
"104",
"97",
"90",
"80",
"95",
"106",
"107",
"133",
"134",
"153",
"215",
"244",
"363",
"526",
"804",
"1084",
"1611",
"2120",
"2944",
"3863",
"5241",
"6153",
"7339",
"8371",
"9378",
"9159",
"9276",
"8215",
"7619",
"6425",
"5286",
"3855",
"3047",
"1998",
"1425",
"880",
"605",
"397",
"236",
"174",
"163",
"148",
"116",
"94",
"116",
"107",
"116",
"107",
"105",
"111",
"111",
"108",
"127",
"91",
"95",
"116",
"95",
"105",
"97",
"114",
"124",
"132",
"134",
"131",
"182",
"195",
"216",
"209",
"206",
"234",
"215",
"191",
"205",
"179",
"155",
"149",
"125",
"112",
"97",
"72",
"101",
"92",
"84",
"72",
"71",
"78",
"81",
"93",
"82",
"89",
"86",
"83",
"93",
"79",
"87",
"124",
"101",
"110",
"112",
"101",
"137",
"145",
"162",
"155",
"200",
"239",
"228",
"267",
"272",
"268",
"300",
"318",
"385",
"342",
"412",
"382",
"460",
"453",
"473",
"477",
"524",
"593",
"597",
"836",
"1052",
"1413",
"1816",
"2435",
"3188",
"3829",
"4609",
"5070",
"5594",
"5872",
"6229",
"5779",
"5650",
"5012",
"4490",
"3738",
"3080",
"2386",
"1965",
"1476",
"1206",
"957",
"760",
"578",
"623",
"511",
"469",
"439",
"466",
"381",
"378",
"354",
"331",
"252",
"279",
"161",
"221",
"152",
"150",
"121",
"94",
"90",
"86",
"95",
"83",
"81",
"84",
"77",
"114",
"91",
"95",
"83",
"74",
"64",
"74",
"86",
"91",
"60",
"52",
"60",
"87",
"71",
"60",
"57",
"52",
"66",
"62",
"54",
"73",
"46",
"72",
"44",
"53",
"64",
"68",
"56",
"69",
"57",
"68",
"71",
"74",
"62",
"66",
"51",
"60",
"66",
"62",
"54",
"68",
"74",
"65",
"76",
"103",
"71",
"87",
"93",
"97",
"117",
"90",
"93",
"79",
"89",
"80",
"91",
"85",
"76",
"90",
"96",
"122",
"112",
"131",
"184",
"263",
"339",
"410",
"491",
"599",
"657",
"799",
"808",
"893",
"920",
"887",
"873",
"801",
"745",
"615",
"560",
"494",
"382",
"313",
"259",
"248",
"206",
"213",
"233",
"215",
"255",
"250",
"318",
"296",
"290",
"341",
"317",
"324",
"285",
"302",
"255",
"229",
"200",
"190",
"149",
"113",
"89",
"81",
"76",
"90",
"74",
"66",
"42",
"50",
"60",
"43",
"57",
"53",
"71",
"65",
"67",
"87",
"74",
"68",
"79",
"78",
"85",
"86",
"81",
"68",
"72",
"68",
"58",
"68",
"63",
"52",
"57",
"59",
"46",
"44",
"43",
"53",
"32",
"56",
"41",
"56",
"43",
"50",
"56",
"44",
"39",
"35",
"38",
"38",
"41",
"40",
"37",
"68",
"49",
"43",
"49",
"53",
"42",
"50",
"45",
"44",
"37",
"50",
"40",
"30",
"48",
"53",
"32",
"53",
"39",
"43",
"50",
"45",
"45",
"44",
"32",
"41",
"48",
"41",
"52",
"42",
"42",
"39",
"53",
"48",
"37",
"45",
"45",
"51",
"48",
"44",
"31",
"53",
"48",
"40",
"39",
"50",
"35",
"38",
"57",
"42",
"33",
"42",
"39",
"56",
"40",
"41",
"40",
"58",
"37",
"43",
"38",
"41",
"42",
"53",
"48",
"46",
"59",
"49",
"48",
"49",
"33",
"56",
"46",
"57",
"49",
"51",
"57",
"70",
"55",
"52",
"66",
"60",
"60",
"69",
"51",
"74",
"55",
"72",
"59",
"62",
"79",
"71",
"74",
"93",
"73",
"96",
"94",
"113",
"101",
"120",
"131",
"153",
"132",
"157",
"180",
"158",
"204",
"218",
"194",
"229",
"212",
"244",
"266",
"258",
"221",
"285",
"260",
"284",
"235",
"238",
"227",
"215",
"233",
"207",
"220",
"211",
"199",
"194",
"170",
"171",
"139",
"141",
"131",
"108",
"99",
"122",
"106",
"92",
"70",
"73",
"67",
"77",
"83",
"70",
"63",
"68",
"81",
"80",
"68",
"73",
"100",
"107",
"139",
"155",
"143",
"180",
"200",
"235",
"218",
"225",
"222",
"229",
"227",
"228",
"177",
"234",
"165",
"151",
"152",
"144",
"111",
"105",
"67",
"65",
"57",
"48",
"48",
"39",
"43",
"42",
"40",
"20951",
"Channel_info_start",
"Channel : Mg",
"Points : 0",
"Range : 0.000000 - 0.000000",
"Step : 0.010000",
"Channel_info_end",
"Channel_info_start",
"Channel : Al",
"Points : 0",
"Range : 0.000000 - 0.000000",
"Step : 0.010000",
"Channel_info_end",
"Channel_info_start",
"Channel : Si",
"Points : 0",
"Range : 0.000000 - 0.000000",
"Step : 0.010000",
"Channel_info_end",
"Channel_info_start",
"Channel : P ",
"Points : 0",
"Range : 0.000000 - 0.000000",
"Step : 0.010000",
"Channel_info_end",
"Channel_info_start",
"Channel : S ",
"Points : 0",
"Range : 0.000000 - 0.000000",
"Step : 0.010000",
"Channel_info_end",
"Channel_info_start",
"Channel : Cl",
"Points : 0",
"Range : 0.000000 - 0.000000",
"Step : 0.010000",
"Channel_info_end",
"Channel_info_start",
"Channel : K ",
"Points : 0",
"Range : 0.000000 - 0.000000",
"Step : 0.010000",
"Channel_info_end",
"Channel_info_start",
"Channel : Ca",
"Points : 0",
"Range : 0.000000 - 0.000000",
"Step : 0.010000",
"Channel_info_end",
"Channel_info_start",
"Channel : Ti",
"Points : 0",
"Range : 0.000000 - 0.000000",
"Step : 0.010000",
"Channel_info_end",
"Channel_info_start",
"Channel : V ",
"Points : 0",
"Range : 0.000000 - 0.000000",
"Step : 0.010000",
"Channel_info_end",
"Channel_info_start",
"Channel : Cr",
"Points : 0",
"Range : 0.000000 - 0.000000",
"Step : 0.010000",
"Channel_info_end",
"Channel_info_start",
"Channel : Mn",
"Points : 0",
"Range : 0.000000 - 0.000000",
"Step : 0.010000",
"Channel_info_end",
"Channel_info_start",
"Channel : Fe",
"Points : 0",
"Range : 0.000000 - 0.000000",
"Step : 0.010000",
"Channel_info_end",
"Channel_info_start",
"Channel : Cu",
"Points : 0",
"Range : 0.000000 - 0.000000",
"Step : 0.010000",
"Channel_info_end",
"Channel_info_start",
"Channel : Zn",
"Points : 0",
"Range : 0.000000 - 0.000000",
"Step : 0.010000",
"Channel_info_end",
"Channel_info_start",
"Channel : Sr",
"Points : 0",
"Range : 0.000000 - 0.000000",
"Step : 0.010000",
"Channel_info_end",
"Channel_info_start",
"Channel : Pb",
"Points : 0",
"Range : 0.000000 - 0.000000",
"Step : 0.010000",
"Channel_info_end",
"",
"Qualitative Result",
"--------------------------------------------------------------------------------",
"Element :  Bi, Ru, Ca, Rb",
"",
"Peak List",
"--------------------------------------------------------------------------------",
"Channel               Line        keV     Net Int.(cps/uA)",
"--------------------------------------------------------------------------------",
"Na                    ----         0.68     0.020",
"                      ----         0.80     0.016",
"                      ----         1.90     0.089",
"                      ----         2.20     0.044",
"                      BiMa         2.44     1.649",
"                      RuLb1        2.74     0.146",
"                      ----         3.23     0.052",
"                      CaKa         3.68     0.292",
"                      CaKb         3.99     0.042",
"                      BiLL         9.43     0.329",
"                      BiLa        10.81     5.834",
"                      ----        11.73     0.079",
"                      BiLb4       12.64     0.116",
"                      BiLb1       12.99     3.844",
"                      RbKa        13.40     0.109",
"                      BiLg1       15.22     0.600",
"                      BiLg2       15.68     0.165",
"                      RuKa        19.16     0.152",
"                      ----        19.44     0.069",
"                      ----        20.01     0.133",
"--------------------------------------------------------------------------------",
"",
"Quantitative Result",
"--------------------------------------------------------------------------------",
"Analyte               Result             Std.Dev. Proc.-Calc. Line Intensity(cps/uA)",
"--------------------------------------------------------------------------------",
"====[No. 1 Layer]====< Layer1               >===============================",
"Layer1                   0.000 ug/cm2    -------- Flux       -------- --------",