File: inputs/edxCalibration/edx_raw/2010/junho/Bi 31520.20100526014617.csv
"Sample    : Bi 31520",
"Operator  : luisf",
"Comment  : cubatao-g-policarbonato",
"Group     : kerr2007ag180cal_lt",
"Date       : 2010-05-26 01:42:12",
"",
"Mesurement Condition",
"------------------------------------------------------------------------------------",
"Instrument : 700HS2   Atmosphere : Vac.   Collimator : 10(mm)   Spin : No",
"------------------------------------------------------------------------------------",
"Analyte               TG kV   uA      FI Acq.(keV)  Anal.(keV)  Time(sec)     DT(%)",
"------------------------------------------------------------------------------------",
"Na                    Rh 50  187-Auto Al  0 - 20    0.8 - 1.2   Live -  180   16",
"",
"<Profile>",
"Channel_info_start",
"Channel : Na",
"Points : 2048",
"Range : 0.000000 - 20.48",
"Step : 0.010000",
"Channel_info_end",
"0",
"0",
"0",
"0",
"0",
"0",
"0",
"0",
"0",
"0",
"0",
"0",
"0",
"0",
"0",
"10",
"27",
"27",
"31",
"35",
"17",
"25",
"36",
"33",
"28",
"41",
"25",
"29",
"27",
"35",
"40",
"50",
"67",
"96",
"98",
"114",
"105",
"94",
"87",
"91",
"76",
"68",
"52",
"46",
"27",
"39",
"26",
"43",
"45",
"35",
"52",
"49",
"36",
"36",
"25",
"36",
"22",
"35",
"25",
"31",
"24",
"33",
"31",
"40",
"41",
"33",
"32",
"25",
"28",
"40",
"38",
"32",
"29",
"40",
"29",
"33",
"39",
"33",
"35",
"38",
"40",
"36",
"33",
"46",
"45",
"50",
"64",
"48",
"74",
"68",
"104",
"127",
"204",
"235",
"311",
"325",
"304",
"262",
"254",
"211",
"238",
"155",
"188",
"156",
"130",
"133",
"156",
"154",
"180",
"212",
"234",
"261",
"288",
"301",
"309",
"369",
"511",
"922",
"1529",
"2486",
"3484",
"4279",
"4715",
"4541",
"4492",
"4025",
"3787",
"3343",
"2712",
"2125",
"1374",
"1003",
"592",
"431",
"399",
"414",
"442",
"487",
"465",
"417",
"310",
"224",
"168",
"95",
"64",
"55",
"61",
"68",
"79",
"96",
"87",
"82",
"79",
"69",
"83",
"76",
"103",
"130",
"153",
"165",
"203",
"222",
"187",
"205",
"145",
"128",
"109",
"52",
"54",
"36",
"44",
"26",
"24",
"29",
"24",
"29",
"29",
"57",
"71",
"120",
"206",
"316",
"463",
"578",
"691",
"677",
"601",
"494",
"394",
"216",
"139",
"99",
"68",
"64",
"47",
"62",
"80",
"75",
"82",
"104",
"108",
"121",
"106",
"94",
"66",
"51",
"31",
"41",
"23",
"17",
"17",
"34",
"22",
"35",
"25",
"29",
"24",
"31",
"31",
"40",
"32",
"31",
"38",
"38",
"48",
"43",
"35",
"48",
"49",
"51",
"38",
"46",
"51",
"48",
"49",
"39",
"33",
"34",
"32",
"31",
"23",
"47",
"37",
"35",
"35",
"40",
"35",
"36",
"39",
"37",
"39",
"39",
"33",
"21",
"43",
"37",
"44",
"44",
"44",
"43",
"49",
"49",
"47",
"55",
"47",
"41",
"38",
"46",
"35",
"37",
"48",
"47",
"50",
"49",
"47",
"60",
"59",
"63",
"75",
"86",
"88",
"92",
"98",
"100",
"105",
"90",
"109",
"128",
"105",
"106",
"83",
"84",
"76",
"76",
"76",
"62",
"72",
"58",
"57",
"62",
"64",
"63",
"62",
"59",
"69",
"66",
"58",
"52",
"71",
"75",
"69",
"75",
"87",
"79",
"64",
"75",
"86",
"71",
"74",
"97",
"86",
"87",
"76",
"81",
"87",
"95",
"86",
"69",
"67",
"74",
"78",
"95",
"72",
"105",
"91",
"74",
"91",
"81",
"87",
"70",
"78",
"91",
"92",
"94",
"87",
"75",
"94",
"88",
"95",
"97",
"99",
"95",
"75",
"87",
"79",
"85",
"85",
"84",
"74",
"87",
"78",
"86",
"94",
"80",
"79",
"73",
"78",
"104",
"85",
"110",
"96",
"90",
"91",
"87",
"86",
"111",
"110",
"111",
"114",
"108",
"107",
"104",
"120",
"107",
"98",
"99",
"110",
"105",
"96",
"85",
"88",
"98",
"79",
"109",
"84",
"81",
"102",
"115",
"120",
"106",
"110",
"124",
"117",
"130",
"128",
"111",
"108",
"119",
"90",
"96",
"107",
"110",
"80",
"92",
"88",
"91",
"88",
"102",
"83",
"95",
"104",
"93",
"121",
"84",
"99",
"136",
"128",
"123",
"146",
"175",
"139",
"144",
"135",
"148",
"154",
"142",
"146",
"124",
"108",
"152",
"109",
"145",
"158",
"120",
"122",
"139",
"136",
"135",
"142",
"139",
"127",
"122",
"120",
"139",
"118",
"116",
"121",
"117",
"112",
"131",
"158",
"165",
"175",
"204",
"285",
"367",
"443",
"494",
"650",
"657",
"717",
"741",
"734",
"643",
"580",
"476",
"439",
"372",
"266",
"174",
"168",
"163",
"129",
"136",
"134",
"129",
"142",
"112",
"116",
"96",
"105",
"80",
"85",
"93",
"128",
"100",
"131",
"112",
"95",
"94",
"105",
"93",
"110",
"79",
"114",
"104",
"94",
"109",
"119",
"98",
"106",
"112",
"110",
"99",
"94",
"123",
"114",
"102",
"119",
"92",
"103",
"104",
"144",
"140",
"167",
"183",
"204",
"306",
"427",
"562",
"827",
"1122",
"1637",
"2333",
"3322",
"4416",
"5702",
"6703",
"8446",
"9340",
"10552",
"10580",
"10881",
"10174",
"9242",
"7681",
"6449",
"5003",
"3781",
"2544",
"1889",
"1198",
"728",
"476",
"365",
"226",
"197",
"161",
"134",
"154",
"147",
"100",
"142",
"124",
"127",
"105",
"107",
"109",
"107",
"107",
"129",
"112",
"133",
"99",
"114",
"103",
"135",
"151",
"166",
"165",
"194",
"198",
"211",
"229",
"217",
"233",
"236",
"239",
"234",
"165",
"191",
"167",
"140",
"140",
"142",
"111",
"126",
"98",
"88",
"84",
"106",
"98",
"93",
"109",
"94",
"81",
"108",
"108",
"94",
"97",
"120",
"100",
"99",
"92",
"129",
"116",
"132",
"169",
"198",
"182",
"228",
"268",
"273",
"271",
"308",
"265",
"377",
"357",
"421",
"399",
"462",
"495",
"521",
"539",
"557",
"584",
"574",
"603",
"765",
"871",
"1202",
"1488",
"1980",
"2622",
"3430",
"4229",
"5126",
"5815",
"6430",
"6805",
"7141",
"6963",
"6864",
"6025",
"5439",
"4675",
"4004",
"2975",
"2384",
"1874",
"1540",
"1151",
"953",
"763",
"741",
"628",
"561",
"508",
"532",
"506",
"419",
"390",
"399",
"316",
"309",
"258",
"210",
"190",
"175",
"140",
"124",
"108",
"120",
"119",
"114",
"99",
"104",
"88",
"111",
"110",
"81",
"70",
"100",
"93",
"71",
"78",
"90",
"71",
"60",
"75",
"79",
"69",
"66",
"67",
"72",
"74",
"63",
"61",
"76",
"68",
"55",
"73",
"70",
"60",
"67",
"56",
"68",
"56",
"70",
"71",
"71",
"70",
"76",
"81",
"69",
"64",
"66",
"80",
"84",
"62",
"79",
"67",
"83",
"84",
"108",
"100",
"98",
"98",
"103",
"115",
"87",
"109",
"97",
"93",
"98",
"90",
"98",
"100",
"80",
"115",
"153",
"178",
"270",
"313",
"442",
"542",
"619",
"721",
"851",
"990",
"1015",
"1002",
"1081",
"1011",
"1060",
"810",
"819",
"702",
"654",
"511",
"380",
"329",
"306",
"225",
"239",
"268",
"285",
"293",
"293",
"324",
"406",
"324",
"364",
"387",
"392",
"333",
"344",
"311",
"278",
"227",
"186",
"155",
"156",
"153",
"108",
"88",
"86",
"75",
"68",
"67",
"69",
"62",
"64",
"63",
"68",
"62",
"76",
"68",
"67",
"79",
"82",
"97",
"81",
"103",
"92",
"84",
"82",
"62",
"79",
"81",
"80",
"67",
"66",
"60",
"66",
"52",
"49",
"49",
"43",
"56",
"50",
"51",
"50",
"52",
"49",
"58",
"44",
"45",
"56",
"39",
"54",
"47",
"46",
"36",
"49",
"45",
"66",
"45",
"51",
"57",
"46",
"51",
"57",
"37",
"43",
"41",
"46",
"47",
"39",
"50",
"40",
"47",
"52",
"44",
"36",
"50",
"49",
"38",
"45",
"39",
"44",
"38",
"50",
"48",
"51",
"38",
"46",
"32",
"55",
"49",
"58",
"54",
"57",
"57",
"64",
"39",
"45",
"51",
"46",
"60",
"60",
"58",
"52",
"51",
"63",
"59",
"67",
"47",
"63",
"43",
"57",
"55",
"52",
"62",
"59",
"58",
"49",
"55",
"49",
"50",
"61",
"56",
"59",
"38",
"52",
"44",
"43",
"56",
"63",
"75",
"43",
"46",
"63",
"63",
"71",
"48",
"70",
"67",
"68",
"85",
"87",
"86",
"74",
"85",
"84",
"87",
"117",
"71",
"111",
"115",
"107",
"118",
"141",
"144",
"152",
"163",
"188",
"183",
"207",
"214",
"222",
"219",
"252",
"224",
"281",
"262",
"254",
"282",
"265",
"250",
"320",
"246",
"259",
"262",
"272",
"238",
"263",
"227",
"210",
"214",
"201",
"179",
"191",
"173",
"168",
"116",
"141",
"122",
"119",
"119",
"111",
"104",
"85",
"75",
"86",
"92",
"72",
"84",
"85",
"82",
"92",
"87",
"95",
"118",
"119",
"140",
"152",
"166",
"183",
"199",
"229",
"209",
"217",
"276",
"278",
"215",
"266",
"264",
"259",
"212",
"204",
"164",
"151",
"132",
"116",
"95",
"82",
"63",
"69",
"51",
"52",
"39",
"50",
"35",
"23601",
"Channel_info_start",
"Channel : Mg",
"Points : 0",
"Range : 0.000000 - 0.000000",
"Step : 0.010000",
"Channel_info_end",
"Channel_info_start",
"Channel : Al",
"Points : 0",
"Range : 0.000000 - 0.000000",
"Step : 0.010000",
"Channel_info_end",
"Channel_info_start",
"Channel : Si",
"Points : 0",
"Range : 0.000000 - 0.000000",
"Step : 0.010000",
"Channel_info_end",
"Channel_info_start",
"Channel : P ",
"Points : 0",
"Range : 0.000000 - 0.000000",
"Step : 0.010000",
"Channel_info_end",
"Channel_info_start",
"Channel : S ",
"Points : 0",
"Range : 0.000000 - 0.000000",
"Step : 0.010000",
"Channel_info_end",
"Channel_info_start",
"Channel : Cl",
"Points : 0",
"Range : 0.000000 - 0.000000",
"Step : 0.010000",
"Channel_info_end",
"Channel_info_start",
"Channel : K ",
"Points : 0",
"Range : 0.000000 - 0.000000",
"Step : 0.010000",
"Channel_info_end",
"Channel_info_start",
"Channel : Ca",
"Points : 0",
"Range : 0.000000 - 0.000000",
"Step : 0.010000",
"Channel_info_end",
"Channel_info_start",
"Channel : Ti",
"Points : 0",
"Range : 0.000000 - 0.000000",
"Step : 0.010000",
"Channel_info_end",
"Channel_info_start",
"Channel : V ",
"Points : 0",
"Range : 0.000000 - 0.000000",
"Step : 0.010000",
"Channel_info_end",
"Channel_info_start",
"Channel : Cr",
"Points : 0",
"Range : 0.000000 - 0.000000",
"Step : 0.010000",
"Channel_info_end",
"Channel_info_start",
"Channel : Mn",
"Points : 0",
"Range : 0.000000 - 0.000000",
"Step : 0.010000",
"Channel_info_end",
"Channel_info_start",
"Channel : Fe",
"Points : 0",
"Range : 0.000000 - 0.000000",
"Step : 0.010000",
"Channel_info_end",
"Channel_info_start",
"Channel : Cu",
"Points : 0",
"Range : 0.000000 - 0.000000",
"Step : 0.010000",
"Channel_info_end",
"Channel_info_start",
"Channel : Zn",
"Points : 0",
"Range : 0.000000 - 0.000000",
"Step : 0.010000",
"Channel_info_end",
"Channel_info_start",
"Channel : Sr",
"Points : 0",
"Range : 0.000000 - 0.000000",
"Step : 0.010000",
"Channel_info_end",
"Channel_info_start",
"Channel : Pb",
"Points : 0",
"Range : 0.000000 - 0.000000",
"Step : 0.010000",
"Channel_info_end",
"",
"Qualitative Result",
"--------------------------------------------------------------------------------",
"Element :  Bi, Ru, Ca",
"",
"Peak List",
"--------------------------------------------------------------------------------",
"Channel               Line        keV     Net Int.(cps/uA)",
"--------------------------------------------------------------------------------",
"Na                    ----         0.69     0.024",
"                      ----         0.78     0.021",
"                      ----         1.90     0.089",
"                      ----         2.21     0.047",
"                      BiMa         2.44     1.719",
"                      RuLb1        2.75     0.159",
"                      ----         3.22     0.065",
"                      CaKa         3.69     0.281",
"                      CaKb         4.01     0.038",
"                      BiLL         9.42     0.358",
"                      BiLa        10.84     6.048",
"                      ----        11.73     0.080",
"                      BiLb4       12.65     0.112",
"                      BiLb1       13.00     4.074",
"                      ----        13.44     0.098",
"                      BiLg1       15.24     0.613",
"                      BiLg2       15.64     0.165",
"                      RuKa        19.16     0.130",
"                      ----        19.45     0.068",
"                      ----        19.98     0.099",
"--------------------------------------------------------------------------------",
"",
"Quantitative Result",
"--------------------------------------------------------------------------------",
"Analyte               Result             Std.Dev. Proc.-Calc. Line Intensity(cps/uA)",
"--------------------------------------------------------------------------------",
"====[No. 1 Layer]====< Layer1               >===============================",
"Layer1                   0.000 ug/cm2    -------- Flux       -------- --------",