File: inputs/edxCalibration/edx_raw/2010/junho/Bi 31520.20100626153536.csv
"Sample    : Bi 31520",
"Operator  : luis",
"Comment  : cubatao-g-policarbonato",
"Group     : kerr2007ag180cal_lt",
"Date       : 2010-06-26 15:31:30",
"",
"Mesurement Condition",
"------------------------------------------------------------------------------------",
"Instrument : 700HS2   Atmosphere : Vac.   Collimator : 10(mm)   Spin : No",
"------------------------------------------------------------------------------------",
"Analyte               TG kV   uA      FI Acq.(keV)  Anal.(keV)  Time(sec)     DT(%)",
"------------------------------------------------------------------------------------",
"Na                    Rh 50  187-Auto Al  0 - 20    0.8 - 1.2   Live -  179   16",
"",
"<Profile>",
"Channel_info_start",
"Channel : Na",
"Points : 2048",
"Range : 0.000000 - 20.48",
"Step : 0.010000",
"Channel_info_end",
"0",
"0",
"0",
"0",
"0",
"0",
"0",
"0",
"0",
"0",
"0",
"0",
"0",
"0",
"1",
"15",
"25",
"28",
"33",
"20",
"31",
"37",
"38",
"31",
"34",
"27",
"28",
"35",
"32",
"38",
"31",
"62",
"59",
"75",
"101",
"106",
"87",
"82",
"98",
"83",
"83",
"61",
"57",
"43",
"37",
"25",
"36",
"32",
"35",
"36",
"46",
"47",
"48",
"32",
"25",
"34",
"38",
"29",
"32",
"26",
"27",
"33",
"28",
"38",
"34",
"27",
"36",
"32",
"34",
"29",
"22",
"25",
"31",
"29",
"35",
"36",
"32",
"41",
"39",
"40",
"43",
"40",
"41",
"46",
"50",
"49",
"56",
"59",
"58",
"85",
"101",
"125",
"173",
"239",
"305",
"292",
"349",
"279",
"229",
"222",
"206",
"181",
"194",
"146",
"128",
"132",
"157",
"152",
"196",
"200",
"241",
"222",
"272",
"291",
"303",
"347",
"534",
"850",
"1489",
"2334",
"3375",
"4101",
"4620",
"4486",
"4425",
"3837",
"3741",
"3271",
"2661",
"2052",
"1577",
"912",
"576",
"405",
"345",
"402",
"431",
"498",
"477",
"376",
"332",
"224",
"141",
"110",
"71",
"59",
"67",
"83",
"74",
"99",
"71",
"85",
"73",
"69",
"75",
"73",
"119",
"136",
"157",
"185",
"190",
"213",
"182",
"172",
"124",
"99",
"91",
"67",
"50",
"46",
"33",
"25",
"23",
"20",
"32",
"27",
"38",
"51",
"87",
"108",
"187",
"268",
"432",
"573",
"721",
"696",
"610",
"501",
"352",
"224",
"152",
"118",
"76",
"57",
"63",
"59",
"62",
"70",
"76",
"105",
"92",
"108",
"128",
"83",
"67",
"49",
"46",
"26",
"37",
"21",
"21",
"22",
"27",
"20",
"27",
"24",
"23",
"23",
"35",
"38",
"36",
"38",
"44",
"23",
"49",
"43",
"47",
"40",
"43",
"44",
"45",
"44",
"41",
"48",
"41",
"45",
"47",
"34",
"47",
"41",
"32",
"32",
"26",
"37",
"40",
"34",
"38",
"41",
"46",
"33",
"31",
"39",
"26",
"36",
"31",
"35",
"29",
"24",
"29",
"24",
"32",
"41",
"49",
"48",
"41",
"35",
"44",
"33",
"44",
"39",
"53",
"41",
"38",
"64",
"45",
"47",
"51",
"62",
"68",
"68",
"79",
"80",
"109",
"132",
"106",
"121",
"128",
"131",
"111",
"101",
"109",
"75",
"108",
"75",
"75",
"68",
"71",
"74",
"65",
"68",
"71",
"56",
"53",
"69",
"51",
"75",
"65",
"68",
"80",
"87",
"65",
"68",
"71",
"76",
"81",
"68",
"87",
"86",
"86",
"86",
"89",
"63",
"72",
"73",
"87",
"70",
"63",
"57",
"67",
"82",
"80",
"62",
"76",
"79",
"88",
"79",
"64",
"86",
"81",
"77",
"85",
"85",
"83",
"101",
"60",
"82",
"74",
"83",
"80",
"73",
"97",
"85",
"105",
"84",
"94",
"95",
"87",
"61",
"80",
"101",
"93",
"93",
"84",
"72",
"101",
"91",
"83",
"91",
"103",
"107",
"88",
"83",
"100",
"103",
"115",
"85",
"83",
"103",
"106",
"104",
"115",
"96",
"104",
"85",
"107",
"94",
"85",
"86",
"79",
"89",
"92",
"92",
"97",
"81",
"116",
"92",
"101",
"107",
"107",
"119",
"132",
"134",
"122",
"111",
"118",
"124",
"91",
"85",
"85",
"106",
"84",
"91",
"94",
"108",
"108",
"92",
"77",
"76",
"85",
"82",
"112",
"86",
"111",
"88",
"81",
"98",
"123",
"135",
"147",
"123",
"144",
"152",
"159",
"128",
"149",
"145",
"133",
"137",
"107",
"132",
"112",
"124",
"118",
"139",
"117",
"118",
"103",
"131",
"121",
"135",
"108",
"124",
"113",
"130",
"121",
"124",
"106",
"100",
"105",
"113",
"117",
"141",
"157",
"203",
"276",
"322",
"410",
"446",
"553",
"684",
"735",
"768",
"742",
"658",
"670",
"494",
"452",
"376",
"311",
"210",
"210",
"157",
"154",
"135",
"129",
"117",
"107",
"104",
"96",
"81",
"99",
"101",
"99",
"105",
"103",
"85",
"106",
"89",
"98",
"101",
"86",
"101",
"89",
"83",
"96",
"87",
"107",
"88",
"96",
"86",
"106",
"107",
"93",
"113",
"108",
"96",
"111",
"116",
"96",
"93",
"133",
"105",
"125",
"122",
"154",
"152",
"213",
"263",
"339",
"505",
"769",
"1044",
"1507",
"2091",
"2960",
"3987",
"5122",
"6418",
"7872",
"8977",
"9946",
"10320",
"10767",
"10177",
"9513",
"8023",
"6827",
"5171",
"4095",
"2715",
"2071",
"1313",
"855",
"600",
"372",
"260",
"220",
"187",
"167",
"139",
"155",
"140",
"115",
"123",
"131",
"119",
"127",
"128",
"101",
"113",
"108",
"109",
"112",
"128",
"119",
"125",
"133",
"104",
"175",
"161",
"165",
"189",
"239",
"243",
"248",
"216",
"267",
"219",
"204",
"187",
"165",
"166",
"157",
"128",
"115",
"113",
"127",
"91",
"91",
"95",
"92",
"95",
"91",
"99",
"112",
"91",
"88",
"106",
"109",
"76",
"106",
"108",
"86",
"106",
"135",
"101",
"132",
"161",
"153",
"197",
"209",
"225",
"255",
"255",
"302",
"325",
"336",
"368",
"416",
"376",
"447",
"432",
"486",
"538",
"542",
"546",
"600",
"662",
"733",
"893",
"1090",
"1318",
"1776",
"2290",
"3153",
"3797",
"4764",
"5510",
"6179",
"6627",
"7190",
"6859",
"6830",
"6316",
"5777",
"4834",
"4148",
"3298",
"2566",
"2060",
"1633",
"1252",
"1006",
"843",
"803",
"606",
"586",
"543",
"546",
"465",
"462",
"420",
"407",
"315",
"313",
"263",
"240",
"195",
"163",
"140",
"135",
"110",
"117",
"108",
"110",
"98",
"81",
"91",
"98",
"100",
"101",
"87",
"92",
"92",
"87",
"94",
"82",
"77",
"65",
"69",
"70",
"73",
"61",
"67",
"71",
"59",
"49",
"59",
"47",
"61",
"87",
"86",
"71",
"75",
"62",
"62",
"75",
"69",
"80",
"79",
"70",
"74",
"62",
"64",
"84",
"62",
"64",
"73",
"80",
"76",
"73",
"82",
"82",
"96",
"108",
"100",
"108",
"97",
"96",
"97",
"108",
"106",
"96",
"103",
"98",
"103",
"89",
"84",
"110",
"120",
"154",
"160",
"246",
"258",
"372",
"458",
"573",
"709",
"811",
"921",
"966",
"1009",
"1072",
"1015",
"981",
"958",
"839",
"717",
"643",
"485",
"444",
"348",
"308",
"275",
"245",
"282",
"274",
"284",
"286",
"312",
"363",
"322",
"342",
"341",
"336",
"325",
"341",
"311",
"262",
"256",
"220",
"205",
"140",
"130",
"108",
"93",
"98",
"72",
"61",
"81",
"64",
"77",
"61",
"80",
"69",
"75",
"80",
"76",
"92",
"70",
"84",
"84",
"87",
"95",
"97",
"100",
"86",
"81",
"76",
"79",
"73",
"73",
"65",
"57",
"76",
"60",
"47",
"57",
"47",
"70",
"58",
"51",
"58",
"45",
"53",
"53",
"49",
"55",
"44",
"47",
"46",
"48",
"47",
"51",
"46",
"52",
"53",
"56",
"41",
"46",
"50",
"58",
"41",
"46",
"47",
"56",
"48",
"36",
"55",
"51",
"57",
"43",
"47",
"57",
"55",
"40",
"44",
"58",
"51",
"35",
"65",
"33",
"37",
"56",
"49",
"63",
"50",
"48",
"58",
"51",
"51",
"49",
"46",
"52",
"48",
"39",
"57",
"52",
"65",
"55",
"40",
"59",
"44",
"52",
"44",
"49",
"47",
"59",
"53",
"39",
"53",
"49",
"41",
"49",
"52",
"50",
"55",
"41",
"51",
"52",
"47",
"55",
"58",
"48",
"44",
"44",
"74",
"63",
"57",
"69",
"67",
"60",
"45",
"64",
"64",
"61",
"62",
"52",
"68",
"58",
"59",
"73",
"79",
"48",
"83",
"82",
"97",
"79",
"103",
"103",
"127",
"104",
"128",
"134",
"147",
"161",
"181",
"194",
"184",
"171",
"227",
"233",
"245",
"281",
"258",
"257",
"272",
"285",
"296",
"299",
"326",
"264",
"296",
"280",
"267",
"257",
"240",
"239",
"220",
"206",
"233",
"176",
"184",
"187",
"185",
"163",
"121",
"115",
"139",
"110",
"100",
"109",
"101",
"82",
"71",
"88",
"76",
"70",
"96",
"103",
"77",
"108",
"99",
"99",
"106",
"129",
"143",
"176",
"194",
"197",
"188",
"257",
"264",
"277",
"309",
"243",
"285",
"240",
"248",
"205",
"224",
"171",
"178",
"147",
"121",
"96",
"115",
"56",
"58",
"50",
"56",
"53",
"45",
"55",
"23410",
"Channel_info_start",
"Channel : Mg",
"Points : 0",
"Range : 0.000000 - 0.000000",
"Step : 0.010000",
"Channel_info_end",
"Channel_info_start",
"Channel : Al",
"Points : 0",
"Range : 0.000000 - 0.000000",
"Step : 0.010000",
"Channel_info_end",
"Channel_info_start",
"Channel : Si",
"Points : 0",
"Range : 0.000000 - 0.000000",
"Step : 0.010000",
"Channel_info_end",
"Channel_info_start",
"Channel : P ",
"Points : 0",
"Range : 0.000000 - 0.000000",
"Step : 0.010000",
"Channel_info_end",
"Channel_info_start",
"Channel : S ",
"Points : 0",
"Range : 0.000000 - 0.000000",
"Step : 0.010000",
"Channel_info_end",
"Channel_info_start",
"Channel : Cl",
"Points : 0",
"Range : 0.000000 - 0.000000",
"Step : 0.010000",
"Channel_info_end",
"Channel_info_start",
"Channel : K ",
"Points : 0",
"Range : 0.000000 - 0.000000",
"Step : 0.010000",
"Channel_info_end",
"Channel_info_start",
"Channel : Ca",
"Points : 0",
"Range : 0.000000 - 0.000000",
"Step : 0.010000",
"Channel_info_end",
"Channel_info_start",
"Channel : Ti",
"Points : 0",
"Range : 0.000000 - 0.000000",
"Step : 0.010000",
"Channel_info_end",
"Channel_info_start",
"Channel : V ",
"Points : 0",
"Range : 0.000000 - 0.000000",
"Step : 0.010000",
"Channel_info_end",
"Channel_info_start",
"Channel : Cr",
"Points : 0",
"Range : 0.000000 - 0.000000",
"Step : 0.010000",
"Channel_info_end",
"Channel_info_start",
"Channel : Mn",
"Points : 0",
"Range : 0.000000 - 0.000000",
"Step : 0.010000",
"Channel_info_end",
"Channel_info_start",
"Channel : Fe",
"Points : 0",
"Range : 0.000000 - 0.000000",
"Step : 0.010000",
"Channel_info_end",
"Channel_info_start",
"Channel : Cu",
"Points : 0",
"Range : 0.000000 - 0.000000",
"Step : 0.010000",
"Channel_info_end",
"Channel_info_start",
"Channel : Zn",
"Points : 0",
"Range : 0.000000 - 0.000000",
"Step : 0.010000",
"Channel_info_end",
"Channel_info_start",
"Channel : Sr",
"Points : 0",
"Range : 0.000000 - 0.000000",
"Step : 0.010000",
"Channel_info_end",
"Channel_info_start",
"Channel : Pb",
"Points : 0",
"Range : 0.000000 - 0.000000",
"Step : 0.010000",
"Channel_info_end",
"",
"Qualitative Result",
"--------------------------------------------------------------------------------",
"Element :  Bi, Ru, Ca",
"",
"Peak List",
"--------------------------------------------------------------------------------",
"Channel               Line        keV     Net Int.(cps/uA)",
"--------------------------------------------------------------------------------",
"Na                    ----         0.69     0.024",
"                      ----         0.79     0.019",
"                      ----         1.90     0.085",
"                      ----         2.21     0.045",
"                      BiMa         2.44     1.684",
"                      RuLb1        2.74     0.155",
"                      ----         3.22     0.065",
"                      CaKa         3.69     0.288",
"                      CaKb         4.03     0.038",
"                      ----         5.73     0.034",
"                      BiLL         9.42     0.363",
"                      BiLa        10.84     5.965",
"                      ----        11.72     0.095",
"                      BiLb4       12.64     0.096",
"                      BiLb1       13.01     4.042",
"                      ----        13.40     0.125",
"                      BiLg1       15.24     0.597",
"                      BiLg2       15.64     0.163",
"                      RuKa        19.17     0.146",
"                      ----        19.47     0.063",
"                      ----        19.95     0.074",
"--------------------------------------------------------------------------------",
"",
"Quantitative Result",
"--------------------------------------------------------------------------------",
"Analyte               Result             Std.Dev. Proc.-Calc. Line Intensity(cps/uA)",
"--------------------------------------------------------------------------------",
"====[No. 1 Layer]====< Layer1               >===============================",
"Layer1                   0.000 ug/cm2    -------- Flux       -------- --------",