File: inputs/edxCalibration/edx_raw/2010/junho/Bi 31520   .20100611040339.csv
"Sample    : Bi 31520   ",
"Operator  : Luís",
"Comment  : cubatao-g-policarbonato",
"Group     : kerr2007ag180cal_lt",
"Date       : 2010-06-11 03:59:32",
"",
"Mesurement Condition",
"------------------------------------------------------------------------------------",
"Instrument : 700HS2   Atmosphere : Vac.   Collimator : 10(mm)   Spin : No",
"------------------------------------------------------------------------------------",
"Analyte               TG kV   uA      FI Acq.(keV)  Anal.(keV)  Time(sec)     DT(%)",
"------------------------------------------------------------------------------------",
"Na                    Rh 50  187-Auto Al  0 - 20    0.8 - 1.2   Live -  180   16",
"",
"<Profile>",
"Channel_info_start",
"Channel : Na",
"Points : 2048",
"Range : 0.000000 - 20.48",
"Step : 0.010000",
"Channel_info_end",
"0",
"0",
"0",
"0",
"0",
"0",
"0",
"0",
"0",
"0",
"0",
"0",
"0",
"0",
"0",
"13",
"22",
"31",
"24",
"21",
"26",
"23",
"21",
"31",
"26",
"31",
"29",
"32",
"44",
"31",
"36",
"51",
"69",
"112",
"99",
"103",
"118",
"90",
"78",
"78",
"79",
"73",
"61",
"40",
"35",
"23",
"31",
"23",
"34",
"46",
"53",
"36",
"40",
"37",
"29",
"39",
"27",
"27",
"33",
"35",
"43",
"37",
"31",
"26",
"25",
"36",
"31",
"23",
"27",
"22",
"37",
"36",
"37",
"36",
"41",
"31",
"31",
"40",
"36",
"38",
"38",
"48",
"35",
"57",
"46",
"37",
"55",
"43",
"72",
"68",
"98",
"133",
"195",
"264",
"324",
"329",
"315",
"277",
"228",
"215",
"192",
"164",
"143",
"188",
"146",
"148",
"160",
"148",
"183",
"207",
"233",
"265",
"309",
"285",
"335",
"419",
"515",
"907",
"1545",
"2482",
"3528",
"4106",
"4635",
"4572",
"4282",
"3933",
"3665",
"3321",
"2672",
"2060",
"1429",
"861",
"585",
"465",
"373",
"418",
"498",
"487",
"462",
"393",
"323",
"218",
"147",
"100",
"73",
"51",
"73",
"66",
"70",
"75",
"69",
"80",
"63",
"67",
"62",
"79",
"108",
"141",
"152",
"163",
"215",
"195",
"148",
"176",
"156",
"117",
"97",
"75",
"53",
"44",
"35",
"27",
"22",
"25",
"31",
"34",
"37",
"43",
"92",
"133",
"193",
"325",
"452",
"650",
"708",
"701",
"609",
"463",
"330",
"202",
"108",
"98",
"87",
"74",
"71",
"76",
"74",
"70",
"97",
"104",
"94",
"116",
"109",
"78",
"69",
"51",
"38",
"38",
"22",
"21",
"21",
"21",
"25",
"27",
"27",
"33",
"38",
"27",
"24",
"31",
"26",
"40",
"41",
"28",
"37",
"46",
"46",
"35",
"40",
"43",
"59",
"43",
"47",
"46",
"43",
"48",
"55",
"27",
"31",
"27",
"40",
"32",
"36",
"49",
"41",
"29",
"27",
"32",
"34",
"36",
"27",
"50",
"31",
"43",
"53",
"38",
"39",
"47",
"46",
"38",
"27",
"38",
"38",
"37",
"46",
"38",
"38",
"43",
"37",
"43",
"62",
"48",
"46",
"49",
"45",
"58",
"62",
"53",
"76",
"97",
"79",
"111",
"116",
"116",
"120",
"104",
"134",
"110",
"95",
"86",
"100",
"74",
"74",
"80",
"73",
"67",
"76",
"57",
"69",
"56",
"68",
"74",
"56",
"57",
"69",
"48",
"79",
"72",
"78",
"60",
"69",
"68",
"72",
"50",
"75",
"74",
"78",
"69",
"83",
"87",
"88",
"106",
"84",
"68",
"90",
"68",
"61",
"79",
"75",
"70",
"90",
"80",
"78",
"67",
"73",
"83",
"67",
"66",
"96",
"82",
"74",
"83",
"68",
"90",
"100",
"102",
"86",
"86",
"92",
"84",
"71",
"93",
"93",
"90",
"83",
"79",
"80",
"88",
"81",
"85",
"86",
"80",
"92",
"76",
"93",
"74",
"86",
"78",
"88",
"76",
"106",
"115",
"106",
"96",
"103",
"109",
"99",
"105",
"117",
"103",
"111",
"78",
"109",
"124",
"122",
"106",
"97",
"80",
"79",
"90",
"97",
"92",
"94",
"79",
"94",
"92",
"106",
"85",
"105",
"96",
"127",
"119",
"108",
"132",
"127",
"107",
"105",
"116",
"90",
"97",
"85",
"91",
"83",
"117",
"93",
"100",
"91",
"102",
"85",
"119",
"84",
"93",
"90",
"121",
"96",
"119",
"123",
"127",
"157",
"167",
"156",
"179",
"171",
"160",
"152",
"134",
"110",
"118",
"121",
"110",
"132",
"142",
"123",
"129",
"133",
"131",
"124",
"128",
"132",
"123",
"128",
"131",
"111",
"122",
"138",
"128",
"109",
"140",
"140",
"122",
"145",
"163",
"192",
"225",
"283",
"378",
"473",
"586",
"674",
"668",
"718",
"765",
"681",
"687",
"608",
"453",
"374",
"312",
"285",
"227",
"192",
"150",
"123",
"123",
"114",
"111",
"102",
"119",
"104",
"124",
"117",
"104",
"103",
"90",
"93",
"85",
"105",
"92",
"98",
"86",
"95",
"112",
"99",
"82",
"88",
"104",
"93",
"114",
"104",
"115",
"98",
"118",
"109",
"105",
"134",
"109",
"111",
"120",
"123",
"100",
"117",
"111",
"117",
"147",
"156",
"197",
"233",
"329",
"440",
"588",
"897",
"1331",
"1827",
"2625",
"3520",
"4684",
"6021",
"7185",
"8707",
"9584",
"10689",
"10659",
"10729",
"9618",
"8786",
"7332",
"5922",
"4487",
"3463",
"2343",
"1598",
"1005",
"678",
"469",
"360",
"236",
"194",
"154",
"141",
"153",
"140",
"128",
"147",
"130",
"119",
"100",
"121",
"117",
"111",
"127",
"105",
"98",
"119",
"136",
"128",
"140",
"134",
"142",
"171",
"188",
"205",
"210",
"231",
"240",
"235",
"222",
"228",
"205",
"195",
"202",
"167",
"156",
"136",
"146",
"99",
"95",
"99",
"104",
"94",
"73",
"105",
"102",
"96",
"87",
"91",
"83",
"112",
"79",
"111",
"97",
"75",
"95",
"105",
"96",
"126",
"126",
"153",
"155",
"169",
"227",
"227",
"246",
"237",
"295",
"318",
"314",
"350",
"395",
"419",
"444",
"428",
"476",
"568",
"513",
"558",
"587",
"585",
"622",
"794",
"991",
"1288",
"1723",
"2236",
"2706",
"3699",
"4517",
"5396",
"5952",
"6716",
"6872",
"7200",
"6872",
"6697",
"5797",
"5230",
"4321",
"3693",
"2867",
"2251",
"1753",
"1441",
"1064",
"940",
"702",
"659",
"590",
"562",
"511",
"509",
"449",
"440",
"393",
"357",
"328",
"288",
"229",
"186",
"169",
"167",
"156",
"122",
"128",
"90",
"103",
"120",
"85",
"93",
"115",
"88",
"104",
"99",
"98",
"75",
"87",
"80",
"76",
"82",
"84",
"79",
"78",
"60",
"68",
"80",
"74",
"72",
"66",
"57",
"55",
"69",
"62",
"76",
"81",
"81",
"57",
"83",
"67",
"64",
"66",
"68",
"80",
"73",
"70",
"79",
"68",
"94",
"51",
"72",
"68",
"85",
"75",
"109",
"86",
"87",
"93",
"81",
"92",
"109",
"116",
"105",
"107",
"87",
"92",
"118",
"99",
"98",
"91",
"87",
"107",
"106",
"129",
"174",
"237",
"290",
"340",
"443",
"551",
"703",
"764",
"858",
"993",
"1077",
"1126",
"1068",
"1017",
"1036",
"855",
"776",
"609",
"609",
"400",
"422",
"260",
"291",
"248",
"227",
"267",
"305",
"277",
"310",
"350",
"382",
"354",
"364",
"374",
"336",
"341",
"344",
"324",
"249",
"219",
"199",
"141",
"129",
"109",
"93",
"69",
"64",
"73",
"70",
"58",
"61",
"70",
"68",
"62",
"68",
"55",
"72",
"78",
"78",
"66",
"95",
"79",
"98",
"100",
"95",
"83",
"83",
"80",
"63",
"82",
"78",
"60",
"61",
"59",
"47",
"66",
"49",
"58",
"61",
"43",
"47",
"44",
"69",
"70",
"56",
"56",
"59",
"43",
"41",
"40",
"48",
"55",
"49",
"56",
"58",
"45",
"38",
"35",
"52",
"53",
"47",
"39",
"43",
"57",
"51",
"52",
"38",
"38",
"49",
"49",
"49",
"45",
"44",
"51",
"62",
"50",
"51",
"48",
"58",
"43",
"41",
"40",
"48",
"45",
"43",
"49",
"47",
"47",
"49",
"43",
"50",
"44",
"28",
"50",
"55",
"47",
"70",
"52",
"47",
"50",
"46",
"53",
"52",
"44",
"41",
"58",
"49",
"44",
"60",
"41",
"55",
"53",
"53",
"41",
"53",
"39",
"61",
"60",
"59",
"51",
"60",
"44",
"64",
"39",
"39",
"56",
"49",
"47",
"64",
"52",
"56",
"50",
"75",
"57",
"62",
"64",
"67",
"73",
"74",
"60",
"56",
"71",
"69",
"96",
"98",
"61",
"99",
"99",
"122",
"120",
"133",
"127",
"154",
"144",
"164",
"202",
"197",
"176",
"233",
"205",
"236",
"211",
"252",
"272",
"266",
"267",
"254",
"270",
"288",
"276",
"370",
"247",
"255",
"265",
"251",
"250",
"262",
"222",
"186",
"223",
"205",
"141",
"176",
"163",
"146",
"148",
"144",
"122",
"108",
"107",
"92",
"87",
"81",
"83",
"99",
"74",
"80",
"83",
"82",
"75",
"79",
"102",
"103",
"95",
"116",
"150",
"150",
"177",
"204",
"194",
"237",
"214",
"236",
"243",
"250",
"267",
"265",
"251",
"209",
"230",
"191",
"140",
"148",
"114",
"99",
"92",
"85",
"63",
"50",
"45",
"47",
"39",
"59",
"46",
"23784",
"Channel_info_start",
"Channel : Mg",
"Points : 0",
"Range : 0.000000 - 0.000000",
"Step : 0.010000",
"Channel_info_end",
"Channel_info_start",
"Channel : Al",
"Points : 0",
"Range : 0.000000 - 0.000000",
"Step : 0.010000",
"Channel_info_end",
"Channel_info_start",
"Channel : Si",
"Points : 0",
"Range : 0.000000 - 0.000000",
"Step : 0.010000",
"Channel_info_end",
"Channel_info_start",
"Channel : P ",
"Points : 0",
"Range : 0.000000 - 0.000000",
"Step : 0.010000",
"Channel_info_end",
"Channel_info_start",
"Channel : S ",
"Points : 0",
"Range : 0.000000 - 0.000000",
"Step : 0.010000",
"Channel_info_end",
"Channel_info_start",
"Channel : Cl",
"Points : 0",
"Range : 0.000000 - 0.000000",
"Step : 0.010000",
"Channel_info_end",
"Channel_info_start",
"Channel : K ",
"Points : 0",
"Range : 0.000000 - 0.000000",
"Step : 0.010000",
"Channel_info_end",
"Channel_info_start",
"Channel : Ca",
"Points : 0",
"Range : 0.000000 - 0.000000",
"Step : 0.010000",
"Channel_info_end",
"Channel_info_start",
"Channel : Ti",
"Points : 0",
"Range : 0.000000 - 0.000000",
"Step : 0.010000",
"Channel_info_end",
"Channel_info_start",
"Channel : V ",
"Points : 0",
"Range : 0.000000 - 0.000000",
"Step : 0.010000",
"Channel_info_end",
"Channel_info_start",
"Channel : Cr",
"Points : 0",
"Range : 0.000000 - 0.000000",
"Step : 0.010000",
"Channel_info_end",
"Channel_info_start",
"Channel : Mn",
"Points : 0",
"Range : 0.000000 - 0.000000",
"Step : 0.010000",
"Channel_info_end",
"Channel_info_start",
"Channel : Fe",
"Points : 0",
"Range : 0.000000 - 0.000000",
"Step : 0.010000",
"Channel_info_end",
"Channel_info_start",
"Channel : Cu",
"Points : 0",
"Range : 0.000000 - 0.000000",
"Step : 0.010000",
"Channel_info_end",
"Channel_info_start",
"Channel : Zn",
"Points : 0",
"Range : 0.000000 - 0.000000",
"Step : 0.010000",
"Channel_info_end",
"Channel_info_start",
"Channel : Sr",
"Points : 0",
"Range : 0.000000 - 0.000000",
"Step : 0.010000",
"Channel_info_end",
"Channel_info_start",
"Channel : Pb",
"Points : 0",
"Range : 0.000000 - 0.000000",
"Step : 0.010000",
"Channel_info_end",
"",
"Qualitative Result",
"--------------------------------------------------------------------------------",
"Element :  Bi, Ru, Ca, Pb",
"",
"Peak List",
"--------------------------------------------------------------------------------",
"Channel               Line        keV     Net Int.(cps/uA)",
"--------------------------------------------------------------------------------",
"Na                    ----         0.70     0.024",
"                      ----         0.81     0.014",
"                      ----         1.90     0.090",
"                      ----         2.21     0.049",
"                      BiMa         2.44     1.706",
"                      RuLb1        2.75     0.152",
"                      ----         3.20     0.071",
"                      CaKa         3.69     0.295",
"                      CaKb         4.03     0.039",
"                      ----         5.66     0.034",
"                      BiLL         9.42     0.361",
"                      BiLa        10.81     6.061",
"                      ----        11.68     0.079",
"                      PbLb1       12.57     0.088",
"                      BiLb1       13.00     4.127",
"                      ----        13.40     0.110",
"                      BiLg1       15.22     0.624",
"                      BiLg2       15.60     0.182",
"                      RuKa        19.19     0.146",
"                      ----        20.01     0.126",
"--------------------------------------------------------------------------------",
"",
"Quantitative Result",
"--------------------------------------------------------------------------------",
"Analyte               Result             Std.Dev. Proc.-Calc. Line Intensity(cps/uA)",
"--------------------------------------------------------------------------------",
"====[No. 1 Layer]====< Layer1               >===============================",
"Layer1                   0.000 ug/cm2    -------- Flux       -------- --------",