File: inputs/edxCalibration/edx_raw/2010/junho/CaF2 31496.20100611000040.csv
"Sample    : CaF2 31496",
"Operator  : thiago",
"Comment  : cubatao-g-policarbonato",
"Group     : kerr2007ag180cal_lt",
"Date       : 2010-06-10 23:56:27",
"",
"Mesurement Condition",
"------------------------------------------------------------------------------------",
"Instrument : 700HS2   Atmosphere : Vac.   Collimator : 10(mm)   Spin : No",
"------------------------------------------------------------------------------------",
"Analyte               TG kV   uA      FI Acq.(keV)  Anal.(keV)  Time(sec)     DT(%)",
"------------------------------------------------------------------------------------",
"Na                    Rh 50  548-Auto Al  0 - 20    0.8 - 1.2   Live -  179   16",
"",
"<Profile>",
"Channel_info_start",
"Channel : Na",
"Points : 2048",
"Range : 0.000000 - 20.48",
"Step : 0.010000",
"Channel_info_end",
"0",
"0",
"0",
"0",
"0",
"0",
"0",
"0",
"0",
"0",
"0",
"0",
"0",
"0",
"1",
"12",
"46",
"27",
"28",
"37",
"37",
"24",
"37",
"31",
"43",
"22",
"36",
"32",
"31",
"36",
"35",
"24",
"25",
"37",
"33",
"27",
"44",
"26",
"24",
"22",
"35",
"20",
"36",
"25",
"23",
"32",
"34",
"26",
"36",
"32",
"30",
"18",
"33",
"37",
"28",
"28",
"32",
"26",
"21",
"42",
"26",
"36",
"34",
"30",
"30",
"44",
"35",
"35",
"35",
"33",
"50",
"33",
"39",
"50",
"39",
"39",
"32",
"38",
"35",
"39",
"49",
"41",
"58",
"55",
"103",
"127",
"129",
"161",
"124",
"122",
"126",
"126",
"108",
"127",
"196",
"286",
"346",
"436",
"411",
"406",
"341",
"275",
"218",
"174",
"105",
"80",
"76",
"53",
"56",
"57",
"59",
"64",
"78",
"77",
"70",
"80",
"59",
"58",
"51",
"37",
"31",
"31",
"36",
"38",
"46",
"27",
"30",
"38",
"34",
"28",
"48",
"42",
"61",
"49",
"59",
"53",
"57",
"55",
"64",
"47",
"59",
"57",
"59",
"60",
"58",
"84",
"89",
"92",
"70",
"101",
"95",
"124",
"136",
"117",
"127",
"139",
"146",
"147",
"154",
"137",
"157",
"159",
"188",
"170",
"208",
"157",
"187",
"188",
"194",
"177",
"236",
"242",
"239",
"283",
"283",
"374",
"542",
"994",
"2018",
"4179",
"7783",
"12610",
"19291",
"24447",
"28332",
"28178",
"25528",
"19360",
"13492",
"7791",
"4309",
"1996",
"1022",
"554",
"518",
"734",
"1248",
"1682",
"2486",
"3046",
"3515",
"3675",
"3328",
"2691",
"1869",
"1183",
"737",
"414",
"210",
"133",
"67",
"55",
"53",
"74",
"53",
"53",
"62",
"73",
"69",
"76",
"68",
"84",
"77",
"111",
"105",
"110",
"110",
"117",
"119",
"110",
"98",
"116",
"90",
"92",
"87",
"90",
"108",
"100",
"79",
"87",
"76",
"99",
"82",
"82",
"79",
"77",
"71",
"68",
"69",
"68",
"60",
"65",
"83",
"64",
"74",
"66",
"65",
"64",
"71",
"78",
"62",
"77",
"67",
"72",
"65",
"72",
"90",
"73",
"94",
"100",
"76",
"102",
"70",
"88",
"73",
"98",
"61",
"80",
"93",
"85",
"111",
"91",
"104",
"88",
"92",
"105",
"77",
"88",
"96",
"106",
"101",
"90",
"112",
"115",
"129",
"127",
"102",
"114",
"134",
"146",
"154",
"134",
"122",
"136",
"139",
"124",
"163",
"154",
"156",
"165",
"136",
"169",
"165",
"150",
"159",
"180",
"187",
"164",
"195",
"193",
"190",
"190",
"195",
"174",
"197",
"152",
"150",
"165",
"145",
"156",
"158",
"169",
"180",
"164",
"173",
"148",
"159",
"191",
"187",
"183",
"165",
"170",
"218",
"191",
"191",
"202",
"198",
"195",
"208",
"194",
"170",
"187",
"204",
"202",
"208",
"214",
"209",
"210",
"188",
"183",
"222",
"191",
"192",
"161",
"191",
"195",
"194",
"158",
"218",
"183",
"204",
"195",
"202",
"170",
"207",
"163",
"174",
"170",
"164",
"167",
"176",
"172",
"185",
"193",
"177",
"183",
"177",
"184",
"190",
"190",
"181",
"194",
"194",
"195",
"161",
"203",
"259",
"228",
"225",
"282",
"319",
"388",
"404",
"450",
"506",
"539",
"591",
"526",
"521",
"488",
"443",
"356",
"337",
"308",
"229",
"206",
"215",
"199",
"193",
"213",
"172",
"205",
"210",
"196",
"197",
"206",
"228",
"231",
"279",
"290",
"293",
"297",
"290",
"249",
"278",
"229",
"227",
"221",
"218",
"208",
"202",
"170",
"182",
"174",
"200",
"164",
"193",
"168",
"199",
"181",
"182",
"175",
"174",
"170",
"169",
"192",
"206",
"211",
"223",
"230",
"257",
"272",
"264",
"305",
"348",
"339",
"358",
"357",
"378",
"372",
"321",
"316",
"293",
"257",
"256",
"262",
"250",
"256",
"257",
"271",
"247",
"257",
"255",
"226",
"252",
"220",
"229",
"211",
"214",
"180",
"187",
"204",
"167",
"190",
"172",
"179",
"183",
"192",
"198",
"165",
"179",
"179",
"160",
"199",
"188",
"188",
"182",
"176",
"180",
"177",
"165",
"170",
"197",
"185",
"181",
"192",
"187",
"181",
"184",
"191",
"185",
"183",
"176",
"180",
"176",
"175",
"186",
"192",
"176",
"188",
"196",
"180",
"198",
"175",
"177",
"156",
"192",
"187",
"198",
"206",
"228",
"199",
"223",
"192",
"199",
"228",
"221",
"214",
"218",
"188",
"192",
"192",
"187",
"177",
"202",
"175",
"182",
"192",
"200",
"165",
"181",
"171",
"184",
"199",
"180",
"192",
"185",
"188",
"169",
"187",
"180",
"144",
"148",
"151",
"170",
"187",
"167",
"177",
"157",
"183",
"179",
"151",
"179",
"159",
"180",
"171",
"171",
"175",
"170",
"145",
"172",
"176",
"183",
"164",
"151",
"172",
"171",
"153",
"169",
"177",
"181",
"165",
"164",
"138",
"185",
"156",
"162",
"156",
"165",
"150",
"152",
"169",
"159",
"145",
"160",
"159",
"153",
"192",
"173",
"142",
"168",
"146",
"158",
"160",
"181",
"161",
"128",
"164",
"172",
"145",
"145",
"158",
"159",
"157",
"158",
"144",
"168",
"172",
"164",
"153",
"179",
"152",
"158",
"138",
"135",
"145",
"144",
"151",
"148",
"148",
"161",
"182",
"149",
"134",
"137",
"142",
"164",
"150",
"133",
"153",
"170",
"159",
"141",
"122",
"153",
"138",
"163",
"154",
"136",
"168",
"127",
"152",
"144",
"144",
"140",
"142",
"154",
"137",
"147",
"140",
"161",
"146",
"111",
"146",
"157",
"149",
"121",
"122",
"136",
"160",
"160",
"145",
"142",
"125",
"148",
"146",
"150",
"141",
"148",
"124",
"126",
"144",
"174",
"140",
"158",
"136",
"146",
"119",
"154",
"145",
"130",
"128",
"129",
"135",
"151",
"156",
"127",
"133",
"139",
"138",
"135",
"118",
"144",
"127",
"141",
"123",
"134",
"146",
"133",
"146",
"131",
"139",
"154",
"145",
"136",
"168",
"133",
"139",
"125",
"133",
"145",
"121",
"145",
"152",
"138",
"134",
"126",
"128",
"123",
"129",
"117",
"122",
"138",
"135",
"131",
"123",
"139",
"121",
"144",
"138",
"123",
"137",
"121",
"117",
"133",
"114",
"142",
"128",
"149",
"106",
"115",
"114",
"145",
"125",
"148",
"119",
"137",
"126",
"147",
"122",
"128",
"125",
"145",
"114",
"138",
"114",
"119",
"105",
"146",
"125",
"119",
"130",
"106",
"134",
"128",
"110",
"128",
"134",
"134",
"112",
"129",
"119",
"98",
"131",
"118",
"93",
"124",
"125",
"119",
"105",
"135",
"111",
"106",
"127",
"99",
"129",
"125",
"121",
"107",
"107",
"110",
"116",
"129",
"124",
"107",
"138",
"121",
"128",
"135",
"118",
"96",
"121",
"115",
"110",
"117",
"102",
"100",
"105",
"98",
"101",
"114",
"119",
"127",
"108",
"130",
"103",
"131",
"107",
"130",
"112",
"112",
"113",
"135",
"108",
"118",
"101",
"122",
"118",
"114",
"112",
"102",
"105",
"116",
"114",
"108",
"119",
"118",
"113",
"118",
"101",
"111",
"116",
"117",
"117",
"122",
"105",
"100",
"115",
"102",
"104",
"130",
"114",
"115",
"114",
"128",
"123",
"116",
"104",
"104",
"91",
"116",
"118",
"124",
"104",
"99",
"114",
"138",
"130",
"111",
"113",
"121",
"116",
"131",
"127",
"116",
"125",
"125",
"126",
"119",
"144",
"124",
"134",
"126",
"127",
"125",
"160",
"133",
"118",
"124",
"148",
"158",
"144",
"152",
"136",
"161",
"152",
"180",
"182",
"184",
"175",
"205",
"210",
"196",
"192",
"233",
"230",
"248",
"272",
"276",
"299",
"356",
"360",
"362",
"367",
"451",
"454",
"528",
"504",
"606",
"573",
"581",
"672",
"695",
"672",
"749",
"761",
"809",
"691",
"804",
"782",
"898",
"793",
"713",
"721",
"777",
"755",
"712",
"681",
"641",
"611",
"558",
"505",
"523",
"458",
"444",
"349",
"356",
"347",
"309",
"279",
"285",
"236",
"227",
"208",
"192",
"184",
"184",
"140",
"217",
"177",
"180",
"177",
"214",
"185",
"213",
"217",
"243",
"261",
"314",
"286",
"309",
"300",
"339",
"349",
"347",
"347",
"374",
"323",
"331",
"256",
"233",
"229",
"217",
"162",
"151",
"156",
"138",
"144",
"102",
"95",
"123",
"95",
"98",
"93",
"55098",
"Channel_info_start",
"Channel : Mg",
"Points : 0",
"Range : 0.000000 - 0.000000",
"Step : 0.010000",
"Channel_info_end",
"Channel_info_start",
"Channel : Al",
"Points : 0",
"Range : 0.000000 - 0.000000",
"Step : 0.010000",
"Channel_info_end",
"Channel_info_start",
"Channel : Si",
"Points : 0",
"Range : 0.000000 - 0.000000",
"Step : 0.010000",
"Channel_info_end",
"Channel_info_start",
"Channel : P ",
"Points : 0",
"Range : 0.000000 - 0.000000",
"Step : 0.010000",
"Channel_info_end",
"Channel_info_start",
"Channel : S ",
"Points : 0",
"Range : 0.000000 - 0.000000",
"Step : 0.010000",
"Channel_info_end",
"Channel_info_start",
"Channel : Cl",
"Points : 0",
"Range : 0.000000 - 0.000000",
"Step : 0.010000",
"Channel_info_end",
"Channel_info_start",
"Channel : K ",
"Points : 0",
"Range : 0.000000 - 0.000000",
"Step : 0.010000",
"Channel_info_end",
"Channel_info_start",
"Channel : Ca",
"Points : 0",
"Range : 0.000000 - 0.000000",
"Step : 0.010000",
"Channel_info_end",
"Channel_info_start",
"Channel : Ti",
"Points : 0",
"Range : 0.000000 - 0.000000",
"Step : 0.010000",
"Channel_info_end",
"Channel_info_start",
"Channel : V ",
"Points : 0",
"Range : 0.000000 - 0.000000",
"Step : 0.010000",
"Channel_info_end",
"Channel_info_start",
"Channel : Cr",
"Points : 0",
"Range : 0.000000 - 0.000000",
"Step : 0.010000",
"Channel_info_end",
"Channel_info_start",
"Channel : Mn",
"Points : 0",
"Range : 0.000000 - 0.000000",
"Step : 0.010000",
"Channel_info_end",
"Channel_info_start",
"Channel : Fe",
"Points : 0",
"Range : 0.000000 - 0.000000",
"Step : 0.010000",
"Channel_info_end",
"Channel_info_start",
"Channel : Cu",
"Points : 0",
"Range : 0.000000 - 0.000000",
"Step : 0.010000",
"Channel_info_end",
"Channel_info_start",
"Channel : Zn",
"Points : 0",
"Range : 0.000000 - 0.000000",
"Step : 0.010000",
"Channel_info_end",
"Channel_info_start",
"Channel : Sr",
"Points : 0",
"Range : 0.000000 - 0.000000",
"Step : 0.010000",
"Channel_info_end",
"Channel_info_start",
"Channel : Pb",
"Points : 0",
"Range : 0.000000 - 0.000000",
"Step : 0.010000",
"Channel_info_end",
"",
"Qualitative Result",
"--------------------------------------------------------------------------------",
"Element :  Ta, P , Ca, Sc, Ru",
"",
"Peak List",
"--------------------------------------------------------------------------------",
"Channel               Line        keV     Net Int.(cps/uA)",
"--------------------------------------------------------------------------------",
"Na                    TaMa         1.74     0.013",
"                      P Ka         1.95     0.048",
"                      CaKa         3.68     4.112",
"                      CaKb         4.02     0.513",
"                      ScKa         4.09     0.069",
"                      ScKb         4.53     0.010",
"                      TaLa         8.12     0.068",
"                      TaLb1        9.35     0.033",
"                      RuKa        19.20     0.141",
"                      ----        19.97     0.038",
"--------------------------------------------------------------------------------",
"",
"Quantitative Result",
"--------------------------------------------------------------------------------",
"Analyte               Result             Std.Dev. Proc.-Calc. Line Intensity(cps/uA)",
"--------------------------------------------------------------------------------",
"====[No. 1 Layer]====< Layer1               >===============================",
"Layer1                   0.000 ug/cm2    -------- Flux       -------- --------",