File: inputs/edxCalibration/edx_raw/2010/junho/CaF2 31496.20100525205545.csv
"Sample    : CaF2 31496",
"Operator  : luisf",
"Comment  : cubatao-g-policarbonato",
"Group     : kerr2007ag180cal_lt",
"Date       : 2010-05-25 20:51:34",
"",
"Mesurement Condition",
"------------------------------------------------------------------------------------",
"Instrument : 700HS2   Atmosphere : Vac.   Collimator : 10(mm)   Spin : No",
"------------------------------------------------------------------------------------",
"Analyte               TG kV   uA      FI Acq.(keV)  Anal.(keV)  Time(sec)     DT(%)",
"------------------------------------------------------------------------------------",
"Na                    Rh 50  500-Auto Al  0 - 20    0.8 - 1.2   Live -  179   14",
"",
"<Profile>",
"Channel_info_start",
"Channel : Na",
"Points : 2048",
"Range : 0.000000 - 20.48",
"Step : 0.010000",
"Channel_info_end",
"0",
"0",
"0",
"0",
"0",
"0",
"0",
"0",
"0",
"0",
"0",
"0",
"0",
"0",
"1",
"17",
"30",
"22",
"28",
"32",
"26",
"29",
"25",
"23",
"12",
"21",
"24",
"21",
"25",
"24",
"34",
"23",
"32",
"33",
"33",
"35",
"34",
"28",
"21",
"40",
"28",
"21",
"35",
"20",
"23",
"23",
"29",
"30",
"24",
"21",
"30",
"18",
"30",
"32",
"32",
"22",
"30",
"27",
"28",
"30",
"29",
"26",
"25",
"29",
"24",
"32",
"24",
"32",
"33",
"41",
"32",
"26",
"33",
"34",
"39",
"44",
"35",
"44",
"29",
"26",
"26",
"41",
"60",
"62",
"77",
"112",
"146",
"146",
"125",
"108",
"108",
"121",
"114",
"114",
"161",
"240",
"358",
"396",
"411",
"381",
"314",
"288",
"210",
"135",
"116",
"60",
"52",
"44",
"55",
"50",
"59",
"39",
"77",
"83",
"79",
"49",
"61",
"54",
"47",
"29",
"35",
"24",
"24",
"33",
"29",
"29",
"44",
"35",
"34",
"33",
"33",
"44",
"44",
"46",
"59",
"49",
"47",
"46",
"57",
"40",
"41",
"44",
"70",
"74",
"70",
"55",
"83",
"94",
"74",
"92",
"96",
"101",
"115",
"100",
"122",
"95",
"144",
"162",
"145",
"152",
"133",
"138",
"163",
"159",
"172",
"164",
"152",
"160",
"163",
"197",
"186",
"198",
"221",
"219",
"275",
"308",
"531",
"937",
"1887",
"3697",
"7241",
"11682",
"17825",
"22709",
"26526",
"26415",
"23417",
"17859",
"12657",
"7264",
"4161",
"1865",
"902",
"514",
"510",
"679",
"1103",
"1544",
"2175",
"2831",
"3330",
"3236",
"3002",
"2467",
"1823",
"1165",
"687",
"343",
"175",
"91",
"76",
"60",
"60",
"51",
"51",
"67",
"55",
"65",
"67",
"64",
"92",
"94",
"72",
"94",
"96",
"112",
"92",
"91",
"74",
"97",
"89",
"76",
"94",
"87",
"92",
"88",
"94",
"97",
"88",
"78",
"84",
"65",
"85",
"77",
"91",
"77",
"77",
"58",
"84",
"67",
"64",
"64",
"79",
"59",
"75",
"59",
"73",
"72",
"64",
"73",
"58",
"82",
"73",
"78",
"61",
"67",
"59",
"72",
"72",
"77",
"78",
"81",
"84",
"71",
"67",
"71",
"84",
"84",
"84",
"98",
"82",
"95",
"96",
"84",
"83",
"98",
"94",
"92",
"97",
"85",
"101",
"82",
"120",
"97",
"115",
"104",
"98",
"104",
"109",
"135",
"115",
"127",
"131",
"121",
"151",
"136",
"143",
"126",
"131",
"151",
"135",
"131",
"148",
"141",
"153",
"143",
"161",
"156",
"141",
"190",
"181",
"196",
"177",
"144",
"164",
"156",
"147",
"153",
"139",
"143",
"134",
"129",
"146",
"143",
"133",
"152",
"155",
"151",
"160",
"140",
"168",
"184",
"190",
"198",
"187",
"172",
"201",
"184",
"173",
"152",
"163",
"173",
"195",
"211",
"174",
"182",
"174",
"181",
"187",
"202",
"214",
"197",
"157",
"184",
"186",
"185",
"171",
"178",
"185",
"164",
"187",
"188",
"174",
"175",
"165",
"180",
"169",
"161",
"173",
"165",
"151",
"152",
"175",
"145",
"177",
"144",
"168",
"178",
"168",
"151",
"171",
"169",
"181",
"190",
"206",
"203",
"215",
"201",
"254",
"287",
"299",
"341",
"402",
"434",
"471",
"464",
"503",
"506",
"521",
"461",
"403",
"344",
"296",
"260",
"266",
"195",
"192",
"177",
"194",
"184",
"175",
"185",
"189",
"175",
"218",
"188",
"223",
"252",
"210",
"240",
"264",
"252",
"275",
"222",
"247",
"227",
"203",
"201",
"170",
"164",
"197",
"180",
"173",
"160",
"175",
"166",
"176",
"182",
"160",
"189",
"152",
"162",
"173",
"159",
"181",
"157",
"205",
"171",
"202",
"211",
"254",
"257",
"303",
"298",
"328",
"311",
"396",
"334",
"309",
"341",
"310",
"282",
"275",
"266",
"224",
"236",
"232",
"220",
"205",
"221",
"231",
"227",
"235",
"206",
"208",
"192",
"182",
"198",
"162",
"146",
"166",
"166",
"162",
"165",
"163",
"156",
"184",
"156",
"172",
"171",
"161",
"144",
"182",
"160",
"172",
"147",
"177",
"152",
"159",
"146",
"177",
"176",
"173",
"165",
"161",
"177",
"171",
"184",
"160",
"173",
"182",
"198",
"163",
"192",
"162",
"173",
"175",
"172",
"159",
"148",
"181",
"171",
"161",
"161",
"160",
"183",
"160",
"151",
"176",
"162",
"190",
"197",
"188",
"219",
"180",
"190",
"197",
"173",
"200",
"157",
"199",
"175",
"169",
"177",
"173",
"174",
"160",
"152",
"177",
"171",
"174",
"182",
"150",
"185",
"196",
"169",
"174",
"161",
"158",
"149",
"152",
"166",
"157",
"160",
"138",
"141",
"173",
"153",
"146",
"146",
"149",
"149",
"163",
"157",
"145",
"151",
"155",
"148",
"147",
"164",
"150",
"170",
"149",
"158",
"159",
"152",
"195",
"155",
"137",
"153",
"159",
"169",
"168",
"129",
"175",
"146",
"150",
"139",
"143",
"145",
"161",
"122",
"141",
"163",
"151",
"146",
"161",
"143",
"141",
"149",
"157",
"148",
"146",
"147",
"133",
"148",
"140",
"129",
"128",
"138",
"146",
"137",
"155",
"148",
"145",
"122",
"149",
"139",
"156",
"143",
"157",
"157",
"149",
"129",
"152",
"116",
"136",
"134",
"125",
"153",
"150",
"133",
"159",
"128",
"153",
"136",
"124",
"120",
"165",
"116",
"141",
"147",
"155",
"131",
"125",
"116",
"158",
"144",
"141",
"124",
"155",
"133",
"129",
"103",
"136",
"152",
"133",
"146",
"138",
"133",
"153",
"122",
"149",
"160",
"120",
"143",
"134",
"143",
"125",
"126",
"137",
"136",
"116",
"128",
"140",
"144",
"146",
"136",
"121",
"123",
"132",
"126",
"141",
"160",
"140",
"127",
"122",
"144",
"128",
"127",
"129",
"132",
"111",
"129",
"125",
"119",
"128",
"122",
"122",
"139",
"143",
"120",
"122",
"113",
"132",
"116",
"125",
"120",
"135",
"112",
"118",
"136",
"141",
"110",
"129",
"134",
"126",
"111",
"120",
"122",
"131",
"147",
"126",
"112",
"125",
"102",
"134",
"121",
"124",
"109",
"132",
"129",
"109",
"106",
"98",
"119",
"127",
"121",
"131",
"111",
"136",
"114",
"120",
"103",
"123",
"114",
"120",
"126",
"110",
"96",
"119",
"123",
"109",
"115",
"106",
"102",
"90",
"111",
"125",
"125",
"122",
"136",
"90",
"123",
"119",
"102",
"121",
"98",
"118",
"122",
"98",
"124",
"98",
"109",
"102",
"99",
"109",
"100",
"110",
"94",
"96",
"97",
"137",
"103",
"119",
"115",
"124",
"122",
"106",
"107",
"118",
"101",
"123",
"98",
"119",
"132",
"123",
"104",
"96",
"103",
"125",
"90",
"103",
"88",
"99",
"99",
"100",
"109",
"108",
"110",
"89",
"111",
"110",
"121",
"103",
"104",
"113",
"95",
"101",
"100",
"91",
"101",
"116",
"113",
"85",
"104",
"107",
"125",
"101",
"99",
"115",
"114",
"108",
"107",
"111",
"97",
"112",
"104",
"95",
"102",
"119",
"99",
"89",
"91",
"111",
"96",
"102",
"99",
"98",
"91",
"95",
"97",
"97",
"113",
"95",
"94",
"119",
"104",
"120",
"114",
"101",
"98",
"119",
"106",
"111",
"98",
"110",
"112",
"114",
"104",
"112",
"106",
"107",
"109",
"99",
"112",
"113",
"99",
"92",
"116",
"102",
"107",
"144",
"115",
"108",
"112",
"112",
"123",
"132",
"116",
"110",
"113",
"136",
"123",
"126",
"131",
"156",
"125",
"116",
"119",
"135",
"124",
"144",
"148",
"134",
"146",
"152",
"163",
"162",
"194",
"164",
"153",
"175",
"198",
"230",
"211",
"233",
"245",
"271",
"257",
"295",
"311",
"310",
"361",
"455",
"404",
"482",
"508",
"563",
"571",
"575",
"627",
"620",
"631",
"676",
"718",
"772",
"675",
"782",
"696",
"745",
"727",
"789",
"694",
"700",
"607",
"628",
"576",
"608",
"529",
"516",
"464",
"469",
"405",
"388",
"344",
"378",
"301",
"281",
"252",
"255",
"236",
"181",
"217",
"194",
"184",
"185",
"169",
"174",
"163",
"172",
"176",
"177",
"184",
"174",
"208",
"235",
"260",
"274",
"271",
"288",
"291",
"353",
"308",
"335",
"275",
"349",
"276",
"267",
"256",
"227",
"186",
"181",
"149",
"157",
"126",
"122",
"113",
"109",
"110",
"99",
"81",
"92",
"116",
"50003",
"Channel_info_start",
"Channel : Mg",
"Points : 0",
"Range : 0.000000 - 0.000000",
"Step : 0.010000",
"Channel_info_end",
"Channel_info_start",
"Channel : Al",
"Points : 0",
"Range : 0.000000 - 0.000000",
"Step : 0.010000",
"Channel_info_end",
"Channel_info_start",
"Channel : Si",
"Points : 0",
"Range : 0.000000 - 0.000000",
"Step : 0.010000",
"Channel_info_end",
"Channel_info_start",
"Channel : P ",
"Points : 0",
"Range : 0.000000 - 0.000000",
"Step : 0.010000",
"Channel_info_end",
"Channel_info_start",
"Channel : S ",
"Points : 0",
"Range : 0.000000 - 0.000000",
"Step : 0.010000",
"Channel_info_end",
"Channel_info_start",
"Channel : Cl",
"Points : 0",
"Range : 0.000000 - 0.000000",
"Step : 0.010000",
"Channel_info_end",
"Channel_info_start",
"Channel : K ",
"Points : 0",
"Range : 0.000000 - 0.000000",
"Step : 0.010000",
"Channel_info_end",
"Channel_info_start",
"Channel : Ca",
"Points : 0",
"Range : 0.000000 - 0.000000",
"Step : 0.010000",
"Channel_info_end",
"Channel_info_start",
"Channel : Ti",
"Points : 0",
"Range : 0.000000 - 0.000000",
"Step : 0.010000",
"Channel_info_end",
"Channel_info_start",
"Channel : V ",
"Points : 0",
"Range : 0.000000 - 0.000000",
"Step : 0.010000",
"Channel_info_end",
"Channel_info_start",
"Channel : Cr",
"Points : 0",
"Range : 0.000000 - 0.000000",
"Step : 0.010000",
"Channel_info_end",
"Channel_info_start",
"Channel : Mn",
"Points : 0",
"Range : 0.000000 - 0.000000",
"Step : 0.010000",
"Channel_info_end",
"Channel_info_start",
"Channel : Fe",
"Points : 0",
"Range : 0.000000 - 0.000000",
"Step : 0.010000",
"Channel_info_end",
"Channel_info_start",
"Channel : Cu",
"Points : 0",
"Range : 0.000000 - 0.000000",
"Step : 0.010000",
"Channel_info_end",
"Channel_info_start",
"Channel : Zn",
"Points : 0",
"Range : 0.000000 - 0.000000",
"Step : 0.010000",
"Channel_info_end",
"Channel_info_start",
"Channel : Sr",
"Points : 0",
"Range : 0.000000 - 0.000000",
"Step : 0.010000",
"Channel_info_end",
"Channel_info_start",
"Channel : Pb",
"Points : 0",
"Range : 0.000000 - 0.000000",
"Step : 0.010000",
"Channel_info_end",
"",
"Qualitative Result",
"--------------------------------------------------------------------------------",
"Element :  Ta, P , Ca, Ru",
"",
"Peak List",
"--------------------------------------------------------------------------------",
"Channel               Line        keV     Net Int.(cps/uA)",
"--------------------------------------------------------------------------------",
"Na                    TaMa         1.73     0.013",
"                      P Ka         1.96     0.048",
"                      CaKa         3.69     4.186",
"                      CaKb         4.00     0.520",
"                      TaLa         8.15     0.063",
"                      TaLb1        9.32     0.043",
"                      RuKa        19.24     0.137",
"                      ----        19.96     0.032",
"--------------------------------------------------------------------------------",
"",
"Quantitative Result",
"--------------------------------------------------------------------------------",
"Analyte               Result             Std.Dev. Proc.-Calc. Line Intensity(cps/uA)",
"--------------------------------------------------------------------------------",
"====[No. 1 Layer]====< Layer1               >===============================",
"Layer1                   0.000 ug/cm2    -------- Flux       -------- --------",