File: inputs/edxCalibration/edx_raw/2010/junho/Cr 15756.20100525211617.csv
"Sample    : Cr 15756",
"Operator  : luisf",
"Comment  : cubatao-g-policarbonato",
"Group     : kerr2007ag180cal_lt",
"Date       : 2010-05-25 21:12:17",
"",
"Mesurement Condition",
"------------------------------------------------------------------------------------",
"Instrument : 700HS2   Atmosphere : Vac.   Collimator : 10(mm)   Spin : No",
"------------------------------------------------------------------------------------",
"Analyte               TG kV   uA      FI Acq.(keV)  Anal.(keV)  Time(sec)     DT(%)",
"------------------------------------------------------------------------------------",
"Na                    Rh 50  210-Auto Al  0 - 20    0.8 - 1.2   Live -  180   14",
"",
"<Profile>",
"Channel_info_start",
"Channel : Na",
"Points : 2048",
"Range : 0.000000 - 20.48",
"Step : 0.010000",
"Channel_info_end",
"0",
"0",
"0",
"0",
"0",
"0",
"0",
"0",
"0",
"0",
"0",
"0",
"0",
"0",
"0",
"2",
"22",
"14",
"8",
"13",
"11",
"13",
"10",
"10",
"7",
"14",
"9",
"12",
"17",
"10",
"20",
"12",
"10",
"9",
"11",
"12",
"18",
"13",
"7",
"14",
"1",
"15",
"9",
"13",
"12",
"17",
"13",
"12",
"10",
"9",
"12",
"16",
"4",
"16",
"8",
"8",
"10",
"13",
"15",
"14",
"13",
"14",
"11",
"9",
"12",
"11",
"9",
"8",
"7",
"10",
"12",
"16",
"15",
"20",
"29",
"12",
"16",
"12",
"16",
"16",
"24",
"11",
"16",
"10",
"20",
"18",
"16",
"21",
"22",
"17",
"22",
"17",
"25",
"17",
"21",
"14",
"23",
"30",
"44",
"40",
"50",
"60",
"52",
"38",
"27",
"23",
"24",
"21",
"17",
"16",
"14",
"15",
"23",
"10",
"24",
"34",
"18",
"24",
"17",
"21",
"17",
"14",
"15",
"10",
"18",
"16",
"11",
"16",
"11",
"14",
"15",
"16",
"17",
"15",
"14",
"25",
"20",
"13",
"10",
"17",
"18",
"22",
"16",
"14",
"18",
"16",
"15",
"14",
"12",
"13",
"15",
"14",
"15",
"16",
"16",
"23",
"20",
"15",
"24",
"16",
"24",
"17",
"22",
"15",
"28",
"25",
"27",
"29",
"34",
"24",
"22",
"27",
"21",
"20",
"35",
"51",
"47",
"79",
"79",
"158",
"259",
"390",
"458",
"624",
"656",
"664",
"551",
"415",
"273",
"170",
"121",
"70",
"72",
"54",
"61",
"56",
"57",
"67",
"73",
"93",
"81",
"91",
"81",
"73",
"63",
"68",
"66",
"59",
"53",
"56",
"63",
"67",
"55",
"39",
"48",
"38",
"47",
"42",
"50",
"59",
"52",
"65",
"61",
"70",
"74",
"65",
"82",
"64",
"95",
"94",
"87",
"73",
"101",
"65",
"92",
"107",
"79",
"74",
"80",
"72",
"91",
"62",
"87",
"91",
"87",
"65",
"99",
"80",
"98",
"84",
"94",
"108",
"106",
"108",
"144",
"137",
"145",
"139",
"165",
"229",
"331",
"531",
"922",
"1984",
"3772",
"6820",
"12069",
"17362",
"24608",
"29270",
"33163",
"32569",
"29830",
"23743",
"17453",
"11478",
"7023",
"3581",
"1803",
"815",
"408",
"217",
"138",
"110",
"134",
"159",
"175",
"174",
"254",
"349",
"612",
"905",
"1380",
"2013",
"2793",
"3489",
"3921",
"4136",
"4036",
"3484",
"2860",
"1960",
"1412",
"908",
"464",
"264",
"180",
"104",
"74",
"68",
"48",
"47",
"57",
"61",
"57",
"62",
"72",
"67",
"72",
"69",
"80",
"72",
"70",
"82",
"68",
"68",
"74",
"69",
"88",
"91",
"85",
"98",
"78",
"62",
"82",
"90",
"92",
"94",
"72",
"84",
"82",
"66",
"79",
"89",
"75",
"67",
"73",
"50",
"50",
"68",
"74",
"72",
"64",
"64",
"61",
"56",
"61",
"64",
"60",
"62",
"68",
"52",
"51",
"60",
"73",
"60",
"75",
"69",
"72",
"68",
"64",
"54",
"68",
"66",
"67",
"67",
"76",
"69",
"54",
"78",
"74",
"80",
"75",
"72",
"64",
"72",
"78",
"86",
"87",
"84",
"72",
"73",
"63",
"73",
"68",
"66",
"70",
"76",
"82",
"84",
"85",
"102",
"91",
"93",
"79",
"86",
"85",
"87",
"67",
"64",
"70",
"77",
"72",
"64",
"92",
"78",
"66",
"64",
"52",
"77",
"85",
"85",
"70",
"84",
"88",
"89",
"89",
"105",
"117",
"117",
"131",
"101",
"113",
"111",
"117",
"88",
"91",
"68",
"97",
"70",
"72",
"86",
"85",
"75",
"87",
"57",
"80",
"60",
"51",
"69",
"75",
"76",
"57",
"72",
"54",
"51",
"70",
"73",
"65",
"75",
"55",
"64",
"54",
"68",
"65",
"66",
"54",
"67",
"77",
"78",
"74",
"72",
"67",
"63",
"79",
"75",
"73",
"74",
"72",
"76",
"90",
"65",
"78",
"86",
"59",
"75",
"76",
"57",
"77",
"72",
"74",
"66",
"68",
"89",
"85",
"62",
"85",
"101",
"84",
"85",
"85",
"79",
"94",
"79",
"79",
"82",
"88",
"84",
"78",
"76",
"86",
"84",
"87",
"82",
"75",
"60",
"73",
"77",
"86",
"68",
"75",
"68",
"74",
"74",
"64",
"78",
"59",
"65",
"66",
"64",
"67",
"63",
"74",
"69",
"82",
"79",
"93",
"100",
"103",
"107",
"93",
"111",
"121",
"89",
"99",
"77",
"82",
"81",
"85",
"68",
"85",
"77",
"81",
"66",
"61",
"61",
"68",
"77",
"61",
"61",
"68",
"68",
"77",
"69",
"80",
"80",
"88",
"76",
"77",
"74",
"82",
"68",
"67",
"68",
"74",
"57",
"66",
"61",
"63",
"66",
"59",
"65",
"52",
"65",
"53",
"59",
"70",
"69",
"66",
"62",
"68",
"61",
"65",
"78",
"65",
"65",
"65",
"59",
"63",
"61",
"65",
"69",
"56",
"55",
"53",
"53",
"61",
"73",
"68",
"54",
"67",
"55",
"90",
"68",
"66",
"59",
"75",
"65",
"73",
"69",
"57",
"66",
"65",
"55",
"66",
"61",
"57",
"53",
"82",
"56",
"68",
"68",
"72",
"56",
"62",
"66",
"56",
"68",
"54",
"57",
"60",
"49",
"49",
"57",
"80",
"56",
"75",
"69",
"62",
"63",
"57",
"76",
"59",
"63",
"48",
"49",
"62",
"67",
"66",
"51",
"56",
"48",
"65",
"59",
"47",
"60",
"62",
"55",
"65",
"56",
"57",
"60",
"48",
"64",
"72",
"61",
"65",
"63",
"48",
"52",
"73",
"78",
"55",
"51",
"72",
"61",
"74",
"49",
"40",
"63",
"50",
"53",
"78",
"50",
"54",
"62",
"39",
"68",
"68",
"52",
"56",
"51",
"53",
"57",
"61",
"51",
"51",
"70",
"59",
"53",
"55",
"47",
"56",
"64",
"52",
"49",
"48",
"61",
"59",
"51",
"44",
"50",
"53",
"53",
"60",
"50",
"49",
"44",
"59",
"54",
"52",
"49",
"57",
"52",
"57",
"55",
"61",
"38",
"52",
"56",
"56",
"42",
"54",
"46",
"46",
"59",
"60",
"62",
"61",
"51",
"52",
"56",
"48",
"49",
"54",
"59",
"49",
"52",
"47",
"54",
"41",
"48",
"54",
"40",
"50",
"56",
"63",
"51",
"50",
"48",
"54",
"55",
"48",
"47",
"49",
"40",
"49",
"43",
"50",
"46",
"37",
"51",
"38",
"47",
"44",
"44",
"40",
"51",
"59",
"34",
"43",
"48",
"47",
"56",
"35",
"54",
"52",
"44",
"51",
"39",
"56",
"55",
"42",
"53",
"47",
"59",
"61",
"36",
"46",
"42",
"50",
"59",
"40",
"54",
"38",
"49",
"41",
"50",
"38",
"54",
"49",
"49",
"49",
"49",
"42",
"39",
"47",
"50",
"53",
"27",
"36",
"36",
"49",
"43",
"40",
"48",
"39",
"42",
"48",
"44",
"38",
"35",
"37",
"42",
"61",
"35",
"38",
"42",
"40",
"42",
"36",
"43",
"48",
"49",
"46",
"50",
"55",
"46",
"38",
"55",
"41",
"37",
"31",
"44",
"43",
"43",
"41",
"43",
"36",
"43",
"31",
"47",
"38",
"37",
"48",
"51",
"50",
"42",
"41",
"44",
"62",
"51",
"37",
"34",
"48",
"43",
"43",
"46",
"47",
"43",
"53",
"49",
"59",
"41",
"59",
"42",
"61",
"46",
"53",
"39",
"47",
"44",
"38",
"35",
"53",
"51",
"36",
"62",
"66",
"57",
"43",
"46",
"61",
"52",
"62",
"42",
"55",
"72",
"60",
"54",
"53",
"46",
"57",
"70",
"65",
"52",
"75",
"60",
"65",
"62",
"88",
"68",
"86",
"91",
"103",
"98",
"101",
"103",
"92",
"102",
"119",
"115",
"145",
"163",
"152",
"181",
"190",
"191",
"206",
"226",
"256",
"266",
"280",
"264",
"297",
"270",
"266",
"288",
"307",
"303",
"341",
"307",
"269",
"329",
"319",
"273",
"226",
"244",
"257",
"228",
"204",
"193",
"194",
"208",
"171",
"136",
"145",
"136",
"98",
"94",
"118",
"105",
"100",
"80",
"81",
"73",
"75",
"65",
"82",
"75",
"84",
"73",
"92",
"102",
"92",
"103",
"115",
"121",
"124",
"125",
"128",
"128",
"165",
"145",
"150",
"145",
"152",
"130",
"140",
"115",
"125",
"98",
"90",
"64",
"57",
"47",
"59",
"38",
"36",
"41",
"34",
"41",
"34",
"35",
"21152",
"Channel_info_start",
"Channel : Mg",
"Points : 0",
"Range : 0.000000 - 0.000000",
"Step : 0.010000",
"Channel_info_end",
"Channel_info_start",
"Channel : Al",
"Points : 0",
"Range : 0.000000 - 0.000000",
"Step : 0.010000",
"Channel_info_end",
"Channel_info_start",
"Channel : Si",
"Points : 0",
"Range : 0.000000 - 0.000000",
"Step : 0.010000",
"Channel_info_end",
"Channel_info_start",
"Channel : P ",
"Points : 0",
"Range : 0.000000 - 0.000000",
"Step : 0.010000",
"Channel_info_end",
"Channel_info_start",
"Channel : S ",
"Points : 0",
"Range : 0.000000 - 0.000000",
"Step : 0.010000",
"Channel_info_end",
"Channel_info_start",
"Channel : Cl",
"Points : 0",
"Range : 0.000000 - 0.000000",
"Step : 0.010000",
"Channel_info_end",
"Channel_info_start",
"Channel : K ",
"Points : 0",
"Range : 0.000000 - 0.000000",
"Step : 0.010000",
"Channel_info_end",
"Channel_info_start",
"Channel : Ca",
"Points : 0",
"Range : 0.000000 - 0.000000",
"Step : 0.010000",
"Channel_info_end",
"Channel_info_start",
"Channel : Ti",
"Points : 0",
"Range : 0.000000 - 0.000000",
"Step : 0.010000",
"Channel_info_end",
"Channel_info_start",
"Channel : V ",
"Points : 0",
"Range : 0.000000 - 0.000000",
"Step : 0.010000",
"Channel_info_end",
"Channel_info_start",
"Channel : Cr",
"Points : 0",
"Range : 0.000000 - 0.000000",
"Step : 0.010000",
"Channel_info_end",
"Channel_info_start",
"Channel : Mn",
"Points : 0",
"Range : 0.000000 - 0.000000",
"Step : 0.010000",
"Channel_info_end",
"Channel_info_start",
"Channel : Fe",
"Points : 0",
"Range : 0.000000 - 0.000000",
"Step : 0.010000",
"Channel_info_end",
"Channel_info_start",
"Channel : Cu",
"Points : 0",
"Range : 0.000000 - 0.000000",
"Step : 0.010000",
"Channel_info_end",
"Channel_info_start",
"Channel : Zn",
"Points : 0",
"Range : 0.000000 - 0.000000",
"Step : 0.010000",
"Channel_info_end",
"Channel_info_start",
"Channel : Sr",
"Points : 0",
"Range : 0.000000 - 0.000000",
"Step : 0.010000",
"Channel_info_end",
"Channel_info_start",
"Channel : Pb",
"Points : 0",
"Range : 0.000000 - 0.000000",
"Step : 0.010000",
"Channel_info_end",
"",
"Qualitative Result",
"--------------------------------------------------------------------------------",
"Element :  P , Cr, Ru",
"",
"Peak List",
"--------------------------------------------------------------------------------",
"Channel               Line        keV     Net Int.(cps/uA)",
"--------------------------------------------------------------------------------",
"Na                    P Ka         2.01     0.013",
"                      ----         3.68     0.235",
"                      CrKa         5.40    13.629",
"                      CrKb         5.94     1.739",
"                      RuKa        19.27     0.144",
"--------------------------------------------------------------------------------",
"",
"Quantitative Result",
"--------------------------------------------------------------------------------",
"Analyte               Result             Std.Dev. Proc.-Calc. Line Intensity(cps/uA)",
"--------------------------------------------------------------------------------",
"====[No. 1 Layer]====< Layer1               >===============================",
"Layer1                   0.000 ug/cm2    -------- Flux       -------- --------",