File: inputs/edxCalibration/edx_raw/2010/junho/Cr 31499.20100525215754.csv
"Sample    : Cr 31499",
"Operator  : luisf",
"Comment  : cubatao-g-policarbonato",
"Group     : kerr2007ag180cal_lt",
"Date       : 2010-05-25 21:51:52",
"",
"Mesurement Condition",
"------------------------------------------------------------------------------------",
"Instrument : 700HS2   Atmosphere : Vac.   Collimator : 10(mm)   Spin : No",
"------------------------------------------------------------------------------------",
"Analyte               TG kV   uA      FI Acq.(keV)  Anal.(keV)  Time(sec)     DT(%)",
"------------------------------------------------------------------------------------",
"Na                    Rh 50  210-Auto Al  0 - 20    0.8 - 1.2   Live -  179   15",
"",
"<Profile>",
"Channel_info_start",
"Channel : Na",
"Points : 2048",
"Range : 0.000000 - 20.48",
"Step : 0.010000",
"Channel_info_end",
"0",
"0",
"0",
"0",
"0",
"0",
"0",
"0",
"0",
"0",
"0",
"0",
"0",
"0",
"1",
"3",
"10",
"19",
"13",
"16",
"15",
"16",
"14",
"15",
"11",
"9",
"9",
"12",
"22",
"13",
"15",
"17",
"16",
"5",
"12",
"22",
"7",
"11",
"4",
"16",
"16",
"19",
"11",
"11",
"19",
"14",
"15",
"5",
"13",
"13",
"9",
"9",
"5",
"22",
"13",
"13",
"12",
"3",
"13",
"9",
"10",
"13",
"20",
"10",
"8",
"13",
"11",
"9",
"19",
"13",
"15",
"19",
"20",
"21",
"20",
"20",
"24",
"15",
"20",
"13",
"20",
"15",
"22",
"13",
"19",
"15",
"22",
"29",
"20",
"21",
"11",
"24",
"25",
"15",
"21",
"33",
"32",
"52",
"64",
"71",
"80",
"72",
"68",
"57",
"28",
"16",
"17",
"15",
"16",
"13",
"15",
"24",
"16",
"24",
"9",
"8",
"13",
"22",
"27",
"11",
"14",
"17",
"14",
"10",
"13",
"15",
"21",
"14",
"21",
"16",
"21",
"17",
"16",
"23",
"23",
"20",
"16",
"19",
"15",
"22",
"17",
"23",
"22",
"25",
"22",
"22",
"11",
"25",
"14",
"14",
"21",
"20",
"21",
"20",
"29",
"15",
"20",
"15",
"26",
"31",
"21",
"26",
"23",
"22",
"17",
"16",
"21",
"23",
"28",
"21",
"24",
"24",
"25",
"31",
"35",
"34",
"55",
"72",
"120",
"180",
"316",
"537",
"763",
"898",
"1004",
"998",
"856",
"620",
"457",
"280",
"150",
"100",
"68",
"47",
"57",
"81",
"80",
"75",
"99",
"103",
"131",
"137",
"122",
"129",
"86",
"77",
"72",
"53",
"65",
"57",
"59",
"72",
"63",
"46",
"39",
"58",
"64",
"69",
"69",
"79",
"63",
"49",
"69",
"81",
"81",
"96",
"85",
"80",
"83",
"87",
"94",
"96",
"109",
"93",
"101",
"104",
"101",
"118",
"98",
"79",
"86",
"74",
"76",
"85",
"76",
"110",
"76",
"89",
"111",
"100",
"106",
"128",
"110",
"125",
"150",
"139",
"166",
"167",
"198",
"236",
"340",
"565",
"1076",
"2136",
"4070",
"7514",
"13026",
"18908",
"26583",
"32312",
"36381",
"35409",
"31988",
"25534",
"18957",
"12556",
"7335",
"3802",
"2009",
"920",
"454",
"217",
"147",
"134",
"153",
"125",
"170",
"190",
"299",
"381",
"588",
"957",
"1515",
"2208",
"3156",
"3820",
"4356",
"4416",
"4379",
"3883",
"3169",
"2193",
"1595",
"893",
"565",
"271",
"152",
"108",
"83",
"68",
"67",
"60",
"76",
"62",
"65",
"76",
"64",
"73",
"75",
"82",
"77",
"96",
"70",
"84",
"106",
"73",
"79",
"84",
"73",
"94",
"89",
"92",
"81",
"82",
"110",
"88",
"79",
"89",
"87",
"82",
"81",
"75",
"74",
"97",
"81",
"64",
"55",
"81",
"75",
"50",
"65",
"73",
"80",
"68",
"75",
"68",
"65",
"77",
"67",
"67",
"65",
"62",
"64",
"53",
"72",
"67",
"64",
"65",
"67",
"63",
"76",
"77",
"53",
"62",
"80",
"77",
"89",
"56",
"65",
"75",
"69",
"71",
"50",
"76",
"81",
"67",
"69",
"71",
"67",
"80",
"95",
"80",
"74",
"84",
"76",
"79",
"76",
"75",
"99",
"73",
"67",
"63",
"86",
"83",
"87",
"68",
"79",
"81",
"91",
"56",
"56",
"75",
"73",
"77",
"80",
"85",
"64",
"56",
"83",
"73",
"80",
"70",
"79",
"97",
"94",
"93",
"108",
"110",
"129",
"144",
"121",
"136",
"156",
"104",
"119",
"94",
"106",
"105",
"88",
"89",
"85",
"65",
"81",
"71",
"71",
"72",
"83",
"74",
"82",
"51",
"68",
"59",
"70",
"79",
"72",
"70",
"88",
"80",
"75",
"83",
"67",
"57",
"51",
"85",
"84",
"79",
"62",
"84",
"68",
"77",
"58",
"71",
"95",
"85",
"70",
"75",
"67",
"83",
"79",
"73",
"96",
"62",
"92",
"77",
"75",
"69",
"95",
"98",
"77",
"69",
"84",
"75",
"76",
"86",
"72",
"73",
"74",
"76",
"71",
"61",
"81",
"85",
"91",
"73",
"69",
"84",
"81",
"89",
"81",
"71",
"67",
"69",
"89",
"76",
"82",
"74",
"71",
"77",
"87",
"83",
"70",
"76",
"76",
"72",
"74",
"74",
"65",
"62",
"68",
"70",
"86",
"73",
"77",
"82",
"72",
"74",
"97",
"113",
"89",
"97",
"104",
"118",
"115",
"124",
"93",
"95",
"113",
"80",
"81",
"86",
"69",
"72",
"72",
"62",
"55",
"88",
"89",
"73",
"70",
"83",
"71",
"76",
"79",
"83",
"81",
"76",
"91",
"92",
"80",
"87",
"82",
"67",
"65",
"75",
"76",
"83",
"84",
"76",
"69",
"88",
"70",
"70",
"96",
"65",
"73",
"73",
"69",
"68",
"52",
"57",
"68",
"67",
"76",
"60",
"60",
"77",
"61",
"59",
"79",
"49",
"77",
"65",
"51",
"72",
"74",
"51",
"71",
"53",
"69",
"75",
"60",
"70",
"64",
"64",
"53",
"85",
"64",
"59",
"67",
"68",
"49",
"58",
"81",
"73",
"61",
"65",
"50",
"62",
"75",
"69",
"67",
"58",
"59",
"84",
"74",
"53",
"59",
"57",
"60",
"58",
"52",
"55",
"65",
"49",
"55",
"64",
"57",
"67",
"55",
"56",
"50",
"60",
"74",
"72",
"53",
"68",
"79",
"52",
"49",
"44",
"62",
"77",
"49",
"59",
"58",
"67",
"43",
"61",
"72",
"46",
"63",
"63",
"58",
"82",
"61",
"61",
"55",
"53",
"59",
"60",
"81",
"63",
"63",
"64",
"69",
"53",
"44",
"69",
"67",
"59",
"71",
"81",
"58",
"70",
"70",
"62",
"56",
"63",
"73",
"53",
"63",
"55",
"55",
"56",
"68",
"59",
"52",
"57",
"61",
"63",
"58",
"45",
"63",
"50",
"58",
"51",
"64",
"52",
"51",
"53",
"71",
"40",
"58",
"64",
"47",
"51",
"57",
"55",
"40",
"61",
"59",
"47",
"73",
"55",
"57",
"51",
"61",
"56",
"50",
"57",
"57",
"46",
"44",
"44",
"43",
"63",
"36",
"46",
"61",
"48",
"60",
"55",
"41",
"40",
"47",
"40",
"50",
"69",
"50",
"65",
"58",
"56",
"47",
"34",
"60",
"55",
"43",
"46",
"59",
"59",
"44",
"55",
"65",
"51",
"55",
"52",
"62",
"49",
"49",
"47",
"43",
"58",
"53",
"49",
"55",
"44",
"40",
"45",
"58",
"53",
"41",
"58",
"53",
"52",
"58",
"49",
"47",
"40",
"50",
"41",
"49",
"50",
"43",
"48",
"53",
"45",
"56",
"44",
"32",
"39",
"60",
"40",
"61",
"49",
"43",
"59",
"69",
"40",
"55",
"49",
"38",
"49",
"63",
"44",
"51",
"44",
"49",
"46",
"44",
"50",
"48",
"58",
"47",
"41",
"44",
"41",
"35",
"53",
"48",
"44",
"41",
"37",
"52",
"53",
"59",
"51",
"51",
"48",
"52",
"52",
"33",
"35",
"39",
"44",
"40",
"35",
"61",
"44",
"57",
"47",
"46",
"51",
"40",
"43",
"49",
"50",
"39",
"46",
"41",
"43",
"32",
"37",
"38",
"37",
"29",
"43",
"47",
"51",
"49",
"40",
"49",
"29",
"39",
"38",
"47",
"37",
"34",
"49",
"50",
"38",
"43",
"57",
"39",
"45",
"46",
"52",
"51",
"41",
"45",
"52",
"51",
"43",
"45",
"39",
"38",
"43",
"43",
"47",
"50",
"56",
"56",
"49",
"63",
"59",
"56",
"62",
"48",
"40",
"44",
"51",
"52",
"41",
"62",
"49",
"67",
"65",
"62",
"71",
"87",
"60",
"82",
"86",
"84",
"91",
"101",
"100",
"109",
"81",
"92",
"107",
"125",
"123",
"147",
"181",
"151",
"189",
"194",
"203",
"223",
"259",
"262",
"251",
"264",
"292",
"306",
"320",
"289",
"301",
"333",
"326",
"339",
"313",
"298",
"275",
"307",
"248",
"262",
"264",
"253",
"243",
"243",
"198",
"196",
"164",
"151",
"137",
"159",
"109",
"98",
"120",
"101",
"88",
"94",
"88",
"79",
"70",
"68",
"75",
"64",
"73",
"70",
"75",
"72",
"92",
"91",
"89",
"93",
"112",
"103",
"132",
"158",
"155",
"153",
"140",
"174",
"150",
"160",
"141",
"144",
"115",
"119",
"108",
"82",
"68",
"74",
"57",
"50",
"52",
"45",
"37",
"36",
"41",
"35",
"36",
"21404",
"Channel_info_start",
"Channel : Mg",
"Points : 0",
"Range : 0.000000 - 0.000000",
"Step : 0.010000",
"Channel_info_end",
"Channel_info_start",
"Channel : Al",
"Points : 0",
"Range : 0.000000 - 0.000000",
"Step : 0.010000",
"Channel_info_end",
"Channel_info_start",
"Channel : Si",
"Points : 0",
"Range : 0.000000 - 0.000000",
"Step : 0.010000",
"Channel_info_end",
"Channel_info_start",
"Channel : P ",
"Points : 0",
"Range : 0.000000 - 0.000000",
"Step : 0.010000",
"Channel_info_end",
"Channel_info_start",
"Channel : S ",
"Points : 0",
"Range : 0.000000 - 0.000000",
"Step : 0.010000",
"Channel_info_end",
"Channel_info_start",
"Channel : Cl",
"Points : 0",
"Range : 0.000000 - 0.000000",
"Step : 0.010000",
"Channel_info_end",
"Channel_info_start",
"Channel : K ",
"Points : 0",
"Range : 0.000000 - 0.000000",
"Step : 0.010000",
"Channel_info_end",
"Channel_info_start",
"Channel : Ca",
"Points : 0",
"Range : 0.000000 - 0.000000",
"Step : 0.010000",
"Channel_info_end",
"Channel_info_start",
"Channel : Ti",
"Points : 0",
"Range : 0.000000 - 0.000000",
"Step : 0.010000",
"Channel_info_end",
"Channel_info_start",
"Channel : V ",
"Points : 0",
"Range : 0.000000 - 0.000000",
"Step : 0.010000",
"Channel_info_end",
"Channel_info_start",
"Channel : Cr",
"Points : 0",
"Range : 0.000000 - 0.000000",
"Step : 0.010000",
"Channel_info_end",
"Channel_info_start",
"Channel : Mn",
"Points : 0",
"Range : 0.000000 - 0.000000",
"Step : 0.010000",
"Channel_info_end",
"Channel_info_start",
"Channel : Fe",
"Points : 0",
"Range : 0.000000 - 0.000000",
"Step : 0.010000",
"Channel_info_end",
"Channel_info_start",
"Channel : Cu",
"Points : 0",
"Range : 0.000000 - 0.000000",
"Step : 0.010000",
"Channel_info_end",
"Channel_info_start",
"Channel : Zn",
"Points : 0",
"Range : 0.000000 - 0.000000",
"Step : 0.010000",
"Channel_info_end",
"Channel_info_start",
"Channel : Sr",
"Points : 0",
"Range : 0.000000 - 0.000000",
"Step : 0.010000",
"Channel_info_end",
"Channel_info_start",
"Channel : Pb",
"Points : 0",
"Range : 0.000000 - 0.000000",
"Step : 0.010000",
"Channel_info_end",
"",
"Qualitative Result",
"--------------------------------------------------------------------------------",
"Element :  Ca, Cr, P , Ru",
"",
"Peak List",
"--------------------------------------------------------------------------------",
"Channel               Line        keV     Net Int.(cps/uA)",
"--------------------------------------------------------------------------------",
"Na                    CaLa         0.36     0.003",
"                      CrLa         0.56     0.005",
"                      P Ka         2.00     0.024",
"                      CaKa         3.69     0.371",
"                      CaKb         4.02     0.036",
"                      CrKa         5.41    14.840",
"                      CrKb         5.94     1.849",
"                      ----         8.63     0.035",
"                      RuKa        19.20     0.145",
"                      ----        19.44     0.067",
"                      ----        20.01     0.061",
"--------------------------------------------------------------------------------",
"",
"Quantitative Result",
"--------------------------------------------------------------------------------",
"Analyte               Result             Std.Dev. Proc.-Calc. Line Intensity(cps/uA)",
"--------------------------------------------------------------------------------",
"====[No. 1 Layer]====< Layer1               >===============================",
"Layer1                   0.000 ug/cm2    -------- Flux       -------- --------",