File: inputs/edxCalibration/edx_raw/2010/junho/Cr 31499.20100611004758.csv
"Sample    : Cr 31499",
"Operator  : thiago",
"Comment  : cubatao-g-policarbonato",
"Group     : kerr2007ag180cal_lt",
"Date       : 2010-06-11 00:43:56",
"",
"Mesurement Condition",
"------------------------------------------------------------------------------------",
"Instrument : 700HS2   Atmosphere : Vac.   Collimator : 10(mm)   Spin : No",
"------------------------------------------------------------------------------------",
"Analyte               TG kV   uA      FI Acq.(keV)  Anal.(keV)  Time(sec)     DT(%)",
"------------------------------------------------------------------------------------",
"Na                    Rh 50  210-Auto Al  0 - 20    0.8 - 1.2   Live -  180   14",
"",
"<Profile>",
"Channel_info_start",
"Channel : Na",
"Points : 2048",
"Range : 0.000000 - 20.48",
"Step : 0.010000",
"Channel_info_end",
"0",
"0",
"0",
"0",
"0",
"0",
"0",
"0",
"0",
"0",
"0",
"0",
"0",
"0",
"0",
"4",
"12",
"14",
"20",
"5",
"16",
"11",
"12",
"21",
"9",
"11",
"9",
"10",
"7",
"12",
"21",
"15",
"10",
"9",
"12",
"5",
"20",
"9",
"17",
"12",
"13",
"13",
"16",
"14",
"13",
"5",
"14",
"14",
"19",
"16",
"12",
"14",
"10",
"11",
"9",
"16",
"14",
"10",
"16",
"12",
"7",
"12",
"16",
"14",
"12",
"13",
"16",
"15",
"15",
"15",
"11",
"11",
"20",
"20",
"30",
"21",
"15",
"15",
"5",
"11",
"8",
"10",
"13",
"23",
"20",
"20",
"21",
"26",
"25",
"13",
"24",
"10",
"24",
"21",
"22",
"23",
"30",
"44",
"54",
"83",
"81",
"74",
"75",
"56",
"38",
"27",
"20",
"17",
"16",
"20",
"17",
"12",
"15",
"19",
"15",
"17",
"14",
"20",
"12",
"9",
"19",
"14",
"19",
"20",
"16",
"7",
"21",
"19",
"8",
"13",
"16",
"20",
"20",
"20",
"19",
"23",
"19",
"15",
"11",
"12",
"23",
"22",
"21",
"13",
"22",
"30",
"13",
"19",
"10",
"17",
"13",
"16",
"17",
"14",
"19",
"24",
"21",
"21",
"21",
"23",
"32",
"19",
"13",
"22",
"24",
"21",
"20",
"14",
"22",
"29",
"32",
"21",
"30",
"23",
"29",
"32",
"52",
"67",
"131",
"208",
"380",
"495",
"720",
"887",
"1000",
"945",
"849",
"591",
"373",
"278",
"157",
"85",
"83",
"62",
"75",
"65",
"58",
"75",
"87",
"99",
"130",
"114",
"149",
"108",
"88",
"69",
"56",
"60",
"52",
"67",
"60",
"44",
"45",
"56",
"71",
"48",
"63",
"47",
"67",
"57",
"70",
"62",
"52",
"76",
"63",
"67",
"97",
"89",
"97",
"89",
"84",
"89",
"100",
"91",
"98",
"81",
"116",
"91",
"90",
"88",
"89",
"97",
"96",
"86",
"88",
"67",
"85",
"86",
"97",
"82",
"113",
"101",
"119",
"123",
"144",
"131",
"154",
"157",
"186",
"211",
"363",
"481",
"1056",
"2119",
"4082",
"7424",
"12775",
"18695",
"26499",
"31049",
"35466",
"33901",
"30894",
"24342",
"17993",
"11531",
"7188",
"3696",
"1808",
"827",
"351",
"184",
"142",
"133",
"98",
"148",
"171",
"188",
"238",
"379",
"637",
"1010",
"1482",
"2198",
"2980",
"3714",
"4247",
"4403",
"4276",
"3633",
"3036",
"2083",
"1451",
"874",
"506",
"273",
"151",
"88",
"71",
"67",
"63",
"54",
"50",
"81",
"82",
"59",
"66",
"76",
"73",
"63",
"88",
"101",
"86",
"69",
"71",
"99",
"89",
"71",
"99",
"94",
"83",
"79",
"76",
"66",
"90",
"76",
"79",
"78",
"81",
"79",
"96",
"89",
"64",
"61",
"77",
"78",
"81",
"77",
"63",
"66",
"62",
"50",
"73",
"75",
"70",
"57",
"73",
"59",
"64",
"58",
"54",
"66",
"51",
"78",
"59",
"63",
"61",
"63",
"72",
"62",
"75",
"74",
"59",
"59",
"59",
"71",
"67",
"67",
"73",
"69",
"69",
"67",
"74",
"76",
"70",
"82",
"81",
"64",
"79",
"77",
"63",
"75",
"86",
"69",
"75",
"83",
"66",
"85",
"87",
"84",
"91",
"88",
"87",
"76",
"82",
"71",
"86",
"78",
"72",
"72",
"62",
"64",
"57",
"75",
"72",
"65",
"75",
"78",
"67",
"83",
"90",
"70",
"83",
"89",
"95",
"87",
"94",
"99",
"108",
"103",
"118",
"115",
"139",
"135",
"127",
"93",
"95",
"65",
"77",
"97",
"79",
"77",
"60",
"79",
"75",
"67",
"72",
"73",
"61",
"83",
"53",
"62",
"76",
"72",
"72",
"89",
"73",
"75",
"69",
"76",
"79",
"72",
"57",
"77",
"83",
"70",
"73",
"73",
"60",
"76",
"89",
"65",
"78",
"84",
"79",
"78",
"77",
"76",
"72",
"73",
"76",
"66",
"77",
"67",
"73",
"73",
"77",
"56",
"79",
"78",
"85",
"90",
"77",
"67",
"71",
"66",
"84",
"76",
"85",
"66",
"60",
"77",
"81",
"69",
"79",
"84",
"75",
"78",
"99",
"90",
"85",
"72",
"90",
"78",
"66",
"62",
"79",
"75",
"73",
"67",
"64",
"67",
"81",
"65",
"79",
"64",
"79",
"61",
"66",
"69",
"72",
"65",
"81",
"73",
"83",
"96",
"67",
"106",
"101",
"107",
"100",
"103",
"128",
"105",
"101",
"90",
"97",
"81",
"72",
"79",
"67",
"59",
"79",
"62",
"64",
"72",
"69",
"65",
"71",
"83",
"81",
"86",
"76",
"65",
"67",
"71",
"87",
"72",
"77",
"67",
"77",
"84",
"85",
"81",
"69",
"64",
"75",
"54",
"69",
"62",
"77",
"67",
"61",
"63",
"87",
"64",
"89",
"56",
"60",
"62",
"71",
"59",
"62",
"67",
"52",
"62",
"66",
"58",
"72",
"63",
"64",
"56",
"79",
"45",
"62",
"66",
"59",
"64",
"77",
"58",
"72",
"57",
"69",
"61",
"69",
"69",
"73",
"62",
"69",
"48",
"74",
"53",
"52",
"56",
"54",
"56",
"67",
"64",
"65",
"63",
"74",
"51",
"60",
"61",
"48",
"37",
"71",
"66",
"73",
"46",
"75",
"48",
"75",
"49",
"51",
"49",
"66",
"49",
"62",
"53",
"73",
"62",
"62",
"50",
"74",
"60",
"58",
"64",
"56",
"74",
"59",
"65",
"73",
"52",
"52",
"56",
"67",
"57",
"72",
"62",
"59",
"66",
"60",
"67",
"61",
"58",
"70",
"75",
"59",
"66",
"62",
"51",
"66",
"47",
"70",
"57",
"73",
"65",
"60",
"60",
"57",
"64",
"64",
"53",
"56",
"70",
"51",
"54",
"53",
"57",
"62",
"58",
"69",
"51",
"54",
"61",
"65",
"38",
"60",
"45",
"65",
"50",
"62",
"58",
"51",
"37",
"61",
"49",
"57",
"44",
"45",
"48",
"47",
"47",
"49",
"58",
"37",
"62",
"56",
"42",
"48",
"51",
"50",
"52",
"48",
"39",
"61",
"49",
"63",
"51",
"57",
"53",
"46",
"53",
"40",
"46",
"52",
"57",
"44",
"47",
"58",
"54",
"39",
"58",
"45",
"51",
"57",
"42",
"40",
"53",
"49",
"58",
"62",
"59",
"44",
"45",
"50",
"56",
"50",
"50",
"47",
"46",
"44",
"50",
"46",
"46",
"44",
"34",
"63",
"40",
"51",
"60",
"48",
"45",
"67",
"48",
"42",
"48",
"60",
"46",
"40",
"38",
"36",
"48",
"51",
"56",
"58",
"51",
"45",
"50",
"67",
"56",
"54",
"42",
"44",
"45",
"60",
"39",
"47",
"39",
"56",
"46",
"37",
"64",
"38",
"46",
"38",
"53",
"53",
"44",
"45",
"47",
"52",
"60",
"50",
"45",
"54",
"50",
"32",
"29",
"42",
"47",
"51",
"39",
"49",
"57",
"46",
"41",
"41",
"47",
"49",
"48",
"35",
"34",
"42",
"42",
"59",
"61",
"54",
"45",
"45",
"40",
"57",
"37",
"51",
"41",
"37",
"34",
"39",
"45",
"49",
"46",
"46",
"45",
"42",
"48",
"47",
"57",
"42",
"37",
"40",
"41",
"52",
"51",
"42",
"42",
"34",
"42",
"49",
"37",
"36",
"37",
"51",
"51",
"32",
"47",
"51",
"25",
"45",
"49",
"42",
"46",
"36",
"42",
"32",
"47",
"54",
"29",
"42",
"50",
"49",
"42",
"50",
"37",
"35",
"54",
"57",
"47",
"47",
"51",
"52",
"41",
"59",
"48",
"40",
"57",
"63",
"47",
"58",
"61",
"57",
"49",
"63",
"60",
"65",
"51",
"73",
"58",
"84",
"49",
"97",
"76",
"84",
"82",
"101",
"86",
"94",
"112",
"111",
"118",
"123",
"138",
"158",
"156",
"181",
"173",
"188",
"218",
"234",
"223",
"233",
"244",
"285",
"275",
"293",
"312",
"318",
"309",
"335",
"329",
"342",
"293",
"305",
"283",
"284",
"253",
"261",
"248",
"220",
"232",
"220",
"214",
"198",
"152",
"145",
"167",
"144",
"134",
"112",
"101",
"88",
"88",
"85",
"90",
"79",
"78",
"85",
"75",
"77",
"61",
"73",
"81",
"76",
"77",
"103",
"84",
"94",
"110",
"130",
"123",
"152",
"134",
"144",
"143",
"165",
"136",
"147",
"128",
"143",
"91",
"127",
"99",
"111",
"72",
"67",
"58",
"56",
"52",
"46",
"41",
"40",
"29",
"49",
"40",
"21204",
"Channel_info_start",
"Channel : Mg",
"Points : 0",
"Range : 0.000000 - 0.000000",
"Step : 0.010000",
"Channel_info_end",
"Channel_info_start",
"Channel : Al",
"Points : 0",
"Range : 0.000000 - 0.000000",
"Step : 0.010000",
"Channel_info_end",
"Channel_info_start",
"Channel : Si",
"Points : 0",
"Range : 0.000000 - 0.000000",
"Step : 0.010000",
"Channel_info_end",
"Channel_info_start",
"Channel : P ",
"Points : 0",
"Range : 0.000000 - 0.000000",
"Step : 0.010000",
"Channel_info_end",
"Channel_info_start",
"Channel : S ",
"Points : 0",
"Range : 0.000000 - 0.000000",
"Step : 0.010000",
"Channel_info_end",
"Channel_info_start",
"Channel : Cl",
"Points : 0",
"Range : 0.000000 - 0.000000",
"Step : 0.010000",
"Channel_info_end",
"Channel_info_start",
"Channel : K ",
"Points : 0",
"Range : 0.000000 - 0.000000",
"Step : 0.010000",
"Channel_info_end",
"Channel_info_start",
"Channel : Ca",
"Points : 0",
"Range : 0.000000 - 0.000000",
"Step : 0.010000",
"Channel_info_end",
"Channel_info_start",
"Channel : Ti",
"Points : 0",
"Range : 0.000000 - 0.000000",
"Step : 0.010000",
"Channel_info_end",
"Channel_info_start",
"Channel : V ",
"Points : 0",
"Range : 0.000000 - 0.000000",
"Step : 0.010000",
"Channel_info_end",
"Channel_info_start",
"Channel : Cr",
"Points : 0",
"Range : 0.000000 - 0.000000",
"Step : 0.010000",
"Channel_info_end",
"Channel_info_start",
"Channel : Mn",
"Points : 0",
"Range : 0.000000 - 0.000000",
"Step : 0.010000",
"Channel_info_end",
"Channel_info_start",
"Channel : Fe",
"Points : 0",
"Range : 0.000000 - 0.000000",
"Step : 0.010000",
"Channel_info_end",
"Channel_info_start",
"Channel : Cu",
"Points : 0",
"Range : 0.000000 - 0.000000",
"Step : 0.010000",
"Channel_info_end",
"Channel_info_start",
"Channel : Zn",
"Points : 0",
"Range : 0.000000 - 0.000000",
"Step : 0.010000",
"Channel_info_end",
"Channel_info_start",
"Channel : Sr",
"Points : 0",
"Range : 0.000000 - 0.000000",
"Step : 0.010000",
"Channel_info_end",
"Channel_info_start",
"Channel : Pb",
"Points : 0",
"Range : 0.000000 - 0.000000",
"Step : 0.010000",
"Channel_info_end",
"",
"Qualitative Result",
"--------------------------------------------------------------------------------",
"Element :  P , Ca, Cr, Ru",
"",
"Peak List",
"--------------------------------------------------------------------------------",
"Channel               Line        keV     Net Int.(cps/uA)",
"--------------------------------------------------------------------------------",
"Na                    P Ka         2.01     0.023",
"                      CaKa         3.68     0.360",
"                      CaKb         4.00     0.040",
"                      CrKa         5.40    14.468",
"                      CrKb         5.94     1.843",
"                      ----         8.67     0.031",
"                      RuKa        19.20     0.141",
"                      ----        19.41     0.077",
"                      ----        20.04     0.060",
"--------------------------------------------------------------------------------",
"",
"Quantitative Result",
"--------------------------------------------------------------------------------",
"Analyte               Result             Std.Dev. Proc.-Calc. Line Intensity(cps/uA)",
"--------------------------------------------------------------------------------",
"====[No. 1 Layer]====< Layer1               >===============================",
"Layer1                   0.000 ug/cm2    -------- Flux       -------- --------",