File: inputs/edxCalibration/edx_raw/2010/junho/CsBr 31513.20100525230115.csv
"Sample    : CsBr 31513",
"Operator  : luisf",
"Comment  : cubatao-g-policarbonato",
"Group     : kerr2007ag180cal_lt",
"Date       : 2010-05-25 22:57:12",
"",
"Mesurement Condition",
"------------------------------------------------------------------------------------",
"Instrument : 700HS2   Atmosphere : Vac.   Collimator : 10(mm)   Spin : No",
"------------------------------------------------------------------------------------",
"Analyte               TG kV   uA      FI Acq.(keV)  Anal.(keV)  Time(sec)     DT(%)",
"------------------------------------------------------------------------------------",
"Na                    Rh 50  210-Auto Al  0 - 20    0.8 - 1.2   Live -  178   14",
"",
"<Profile>",
"Channel_info_start",
"Channel : Na",
"Points : 2048",
"Range : 0.000000 - 20.48",
"Step : 0.010000",
"Channel_info_end",
"0",
"0",
"0",
"0",
"0",
"0",
"0",
"0",
"0",
"0",
"0",
"0",
"0",
"0",
"0",
"9",
"15",
"24",
"22",
"23",
"21",
"27",
"22",
"22",
"26",
"24",
"18",
"24",
"27",
"18",
"22",
"23",
"22",
"34",
"13",
"11",
"15",
"13",
"25",
"20",
"21",
"24",
"25",
"28",
"13",
"28",
"26",
"36",
"16",
"27",
"22",
"13",
"22",
"21",
"21",
"23",
"24",
"21",
"18",
"23",
"26",
"26",
"27",
"47",
"36",
"55",
"44",
"55",
"43",
"49",
"92",
"203",
"295",
"522",
"647",
"647",
"589",
"493",
"367",
"239",
"174",
"108",
"79",
"56",
"43",
"36",
"34",
"38",
"31",
"35",
"27",
"31",
"22",
"18",
"27",
"26",
"40",
"49",
"54",
"68",
"87",
"79",
"74",
"51",
"42",
"36",
"24",
"21",
"26",
"21",
"29",
"23",
"22",
"20",
"27",
"24",
"22",
"11",
"24",
"26",
"28",
"27",
"30",
"43",
"47",
"68",
"76",
"85",
"86",
"63",
"30",
"43",
"40",
"30",
"27",
"34",
"29",
"28",
"29",
"37",
"26",
"41",
"37",
"57",
"53",
"60",
"57",
"46",
"40",
"39",
"42",
"34",
"34",
"22",
"22",
"31",
"26",
"37",
"34",
"28",
"35",
"27",
"33",
"25",
"31",
"26",
"37",
"35",
"36",
"28",
"36",
"34",
"28",
"46",
"44",
"54",
"61",
"65",
"119",
"163",
"247",
"340",
"548",
"644",
"744",
"887",
"850",
"715",
"614",
"495",
"415",
"343",
"295",
"238",
"172",
"153",
"132",
"106",
"130",
"144",
"177",
"169",
"197",
"179",
"198",
"223",
"291",
"401",
"759",
"1398",
"2317",
"3502",
"4948",
"6159",
"6769",
"6432",
"5491",
"4238",
"2965",
"1701",
"1078",
"542",
"336",
"238",
"350",
"524",
"951",
"1498",
"2367",
"3178",
"4043",
"4225",
"4424",
"4010",
"3374",
"2724",
"2095",
"1568",
"1099",
"859",
"626",
"553",
"537",
"616",
"754",
"908",
"1018",
"1196",
"1025",
"847",
"699",
"484",
"293",
"209",
"163",
"124",
"116",
"129",
"151",
"238",
"330",
"387",
"536",
"535",
"623",
"520",
"499",
"371",
"278",
"193",
"172",
"154",
"180",
"199",
"282",
"273",
"355",
"333",
"300",
"314",
"263",
"208",
"160",
"118",
"125",
"92",
"94",
"101",
"86",
"56",
"63",
"72",
"56",
"41",
"44",
"46",
"44",
"52",
"67",
"56",
"54",
"34",
"57",
"53",
"55",
"57",
"69",
"87",
"67",
"59",
"53",
"74",
"78",
"74",
"63",
"78",
"78",
"76",
"82",
"65",
"70",
"77",
"91",
"85",
"88",
"75",
"95",
"79",
"79",
"94",
"78",
"87",
"112",
"90",
"112",
"95",
"109",
"112",
"120",
"112",
"111",
"115",
"119",
"108",
"90",
"116",
"124",
"115",
"98",
"96",
"107",
"106",
"102",
"82",
"75",
"81",
"74",
"88",
"88",
"80",
"75",
"83",
"90",
"80",
"65",
"69",
"81",
"91",
"78",
"80",
"61",
"77",
"95",
"99",
"91",
"85",
"92",
"90",
"93",
"88",
"83",
"90",
"86",
"69",
"96",
"70",
"93",
"74",
"96",
"64",
"78",
"116",
"99",
"78",
"95",
"78",
"82",
"104",
"93",
"93",
"106",
"107",
"107",
"107",
"102",
"75",
"87",
"124",
"114",
"91",
"96",
"82",
"75",
"94",
"103",
"81",
"88",
"103",
"95",
"105",
"104",
"112",
"102",
"112",
"116",
"121",
"117",
"124",
"147",
"128",
"142",
"143",
"143",
"145",
"154",
"127",
"130",
"98",
"128",
"107",
"95",
"103",
"103",
"99",
"108",
"107",
"107",
"92",
"104",
"107",
"90",
"98",
"104",
"117",
"113",
"102",
"115",
"120",
"116",
"120",
"91",
"87",
"103",
"111",
"93",
"94",
"91",
"101",
"101",
"93",
"90",
"105",
"79",
"88",
"112",
"90",
"106",
"109",
"103",
"105",
"105",
"99",
"91",
"75",
"86",
"108",
"74",
"82",
"88",
"88",
"99",
"75",
"75",
"85",
"89",
"93",
"99",
"100",
"106",
"87",
"95",
"72",
"93",
"87",
"98",
"83",
"72",
"83",
"99",
"95",
"94",
"90",
"87",
"91",
"79",
"87",
"88",
"101",
"90",
"72",
"64",
"94",
"93",
"82",
"79",
"98",
"76",
"89",
"82",
"76",
"96",
"95",
"93",
"82",
"77",
"85",
"80",
"86",
"92",
"78",
"93",
"82",
"82",
"94",
"94",
"86",
"86",
"89",
"99",
"102",
"70",
"76",
"116",
"89",
"98",
"101",
"98",
"103",
"88",
"78",
"96",
"99",
"96",
"98",
"104",
"106",
"104",
"109",
"82",
"89",
"116",
"82",
"108",
"93",
"109",
"113",
"82",
"117",
"148",
"130",
"171",
"244",
"346",
"547",
"831",
"1299",
"1952",
"2905",
"4092",
"5305",
"7129",
"8356",
"10045",
"10738",
"11844",
"11783",
"11843",
"10559",
"9690",
"8057",
"6693",
"4827",
"3895",
"2646",
"1892",
"1153",
"834",
"471",
"307",
"212",
"153",
"114",
"115",
"98",
"102",
"95",
"95",
"107",
"111",
"74",
"100",
"82",
"96",
"83",
"101",
"75",
"81",
"99",
"101",
"72",
"79",
"77",
"91",
"82",
"89",
"91",
"104",
"113",
"89",
"82",
"90",
"70",
"66",
"96",
"125",
"100",
"124",
"113",
"125",
"96",
"141",
"156",
"178",
"254",
"300",
"432",
"547",
"790",
"998",
"1177",
"1325",
"1568",
"1752",
"1811",
"1873",
"1814",
"1722",
"1498",
"1443",
"1132",
"972",
"748",
"675",
"493",
"419",
"316",
"299",
"204",
"191",
"169",
"126",
"103",
"75",
"99",
"73",
"81",
"63",
"57",
"66",
"60",
"59",
"62",
"59",
"62",
"52",
"76",
"64",
"63",
"55",
"76",
"68",
"68",
"49",
"72",
"78",
"65",
"50",
"66",
"63",
"68",
"47",
"60",
"44",
"78",
"59",
"53",
"51",
"54",
"70",
"56",
"65",
"55",
"59",
"40",
"57",
"47",
"61",
"56",
"50",
"60",
"51",
"65",
"63",
"62",
"68",
"47",
"75",
"74",
"57",
"67",
"56",
"42",
"54",
"74",
"57",
"48",
"51",
"62",
"62",
"55",
"59",
"59",
"59",
"64",
"55",
"46",
"46",
"56",
"60",
"55",
"57",
"52",
"54",
"52",
"56",
"46",
"56",
"54",
"56",
"54",
"53",
"59",
"36",
"67",
"56",
"57",
"61",
"43",
"43",
"48",
"64",
"51",
"67",
"57",
"48",
"59",
"70",
"57",
"72",
"51",
"67",
"55",
"41",
"57",
"48",
"52",
"53",
"43",
"60",
"51",
"54",
"50",
"59",
"59",
"57",
"68",
"57",
"51",
"66",
"48",
"57",
"54",
"65",
"67",
"56",
"49",
"51",
"50",
"67",
"49",
"51",
"53",
"53",
"64",
"47",
"57",
"50",
"51",
"61",
"44",
"63",
"49",
"51",
"47",
"69",
"53",
"60",
"54",
"52",
"34",
"49",
"54",
"56",
"68",
"50",
"42",
"50",
"40",
"69",
"52",
"48",
"49",
"52",
"41",
"44",
"52",
"50",
"57",
"43",
"57",
"39",
"46",
"46",
"34",
"61",
"55",
"52",
"38",
"48",
"57",
"61",
"43",
"47",
"61",
"50",
"46",
"64",
"53",
"66",
"38",
"43",
"52",
"49",
"39",
"39",
"43",
"48",
"48",
"46",
"47",
"60",
"59",
"42",
"35",
"47",
"41",
"49",
"60",
"44",
"49",
"50",
"69",
"51",
"56",
"68",
"53",
"52",
"41",
"60",
"52",
"62",
"48",
"62",
"52",
"53",
"55",
"61",
"52",
"65",
"56",
"63",
"52",
"59",
"60",
"63",
"64",
"60",
"53",
"61",
"70",
"65",
"64",
"79",
"77",
"85",
"73",
"79",
"96",
"104",
"122",
"134",
"145",
"148",
"144",
"156",
"164",
"189",
"197",
"198",
"207",
"225",
"243",
"247",
"289",
"296",
"265",
"325",
"316",
"297",
"272",
"311",
"271",
"308",
"283",
"276",
"294",
"262",
"242",
"263",
"209",
"205",
"196",
"200",
"160",
"146",
"148",
"154",
"111",
"134",
"118",
"101",
"101",
"111",
"83",
"87",
"91",
"70",
"72",
"80",
"82",
"85",
"82",
"86",
"122",
"111",
"114",
"119",
"131",
"154",
"181",
"210",
"184",
"208",
"194",
"209",
"205",
"210",
"182",
"183",
"189",
"150",
"117",
"129",
"109",
"77",
"80",
"70",
"43",
"67",
"51",
"47",
"42",
"31",
"41",
"32893",
"Channel_info_start",
"Channel : Mg",
"Points : 0",
"Range : 0.000000 - 0.000000",
"Step : 0.010000",
"Channel_info_end",
"Channel_info_start",
"Channel : Al",
"Points : 0",
"Range : 0.000000 - 0.000000",
"Step : 0.010000",
"Channel_info_end",
"Channel_info_start",
"Channel : Si",
"Points : 0",
"Range : 0.000000 - 0.000000",
"Step : 0.010000",
"Channel_info_end",
"Channel_info_start",
"Channel : P ",
"Points : 0",
"Range : 0.000000 - 0.000000",
"Step : 0.010000",
"Channel_info_end",
"Channel_info_start",
"Channel : S ",
"Points : 0",
"Range : 0.000000 - 0.000000",
"Step : 0.010000",
"Channel_info_end",
"Channel_info_start",
"Channel : Cl",
"Points : 0",
"Range : 0.000000 - 0.000000",
"Step : 0.010000",
"Channel_info_end",
"Channel_info_start",
"Channel : K ",
"Points : 0",
"Range : 0.000000 - 0.000000",
"Step : 0.010000",
"Channel_info_end",
"Channel_info_start",
"Channel : Ca",
"Points : 0",
"Range : 0.000000 - 0.000000",
"Step : 0.010000",
"Channel_info_end",
"Channel_info_start",
"Channel : Ti",
"Points : 0",
"Range : 0.000000 - 0.000000",
"Step : 0.010000",
"Channel_info_end",
"Channel_info_start",
"Channel : V ",
"Points : 0",
"Range : 0.000000 - 0.000000",
"Step : 0.010000",
"Channel_info_end",
"Channel_info_start",
"Channel : Cr",
"Points : 0",
"Range : 0.000000 - 0.000000",
"Step : 0.010000",
"Channel_info_end",
"Channel_info_start",
"Channel : Mn",
"Points : 0",
"Range : 0.000000 - 0.000000",
"Step : 0.010000",
"Channel_info_end",
"Channel_info_start",
"Channel : Fe",
"Points : 0",
"Range : 0.000000 - 0.000000",
"Step : 0.010000",
"Channel_info_end",
"Channel_info_start",
"Channel : Cu",
"Points : 0",
"Range : 0.000000 - 0.000000",
"Step : 0.010000",
"Channel_info_end",
"Channel_info_start",
"Channel : Zn",
"Points : 0",
"Range : 0.000000 - 0.000000",
"Step : 0.010000",
"Channel_info_end",
"Channel_info_start",
"Channel : Sr",
"Points : 0",
"Range : 0.000000 - 0.000000",
"Step : 0.010000",
"Channel_info_end",
"Channel_info_start",
"Channel : Pb",
"Points : 0",
"Range : 0.000000 - 0.000000",
"Step : 0.010000",
"Channel_info_end",
"",
"Qualitative Result",
"--------------------------------------------------------------------------------",
"Element :  Br, P , Cs, Ce",
"",
"Peak List",
"--------------------------------------------------------------------------------",
"Channel               Line        keV     Net Int.(cps/uA)",
"--------------------------------------------------------------------------------",
"Na                    BrLa         1.49     0.194",
"                      P Ka         2.00     0.021",
"                      CsLaESC      2.55     0.022",
"                      ----         3.70     0.296",
"                      CsLa         4.28     2.582",
"                      CsLb1        4.63     1.641",
"                      CsLb2        4.94     0.412",
"                      CsLg1        5.28     0.155",
"                      CeLb1        5.28     0.049",
"                      CsLg2        5.52     0.115",
"                      BrKa        11.88     6.185",
"                      BrKb        13.28     0.972",
"                      ----        19.24     0.131",
"                      ----        20.00     0.090",
"--------------------------------------------------------------------------------",
"",
"Quantitative Result",
"--------------------------------------------------------------------------------",
"Analyte               Result             Std.Dev. Proc.-Calc. Line Intensity(cps/uA)",
"--------------------------------------------------------------------------------",
"====[No. 1 Layer]====< Layer1               >===============================",
"Layer1                   0.000 ug/cm2    -------- Flux       -------- --------",