File: inputs/edxCalibration/edx_raw/2010/junho/CsBr 31513.20100611013426.csv
"Sample    : CsBr 31513",
"Operator  : Luís",
"Comment  : cubatao-g-policarbonato",
"Group     : kerr2007ag180cal_lt",
"Date       : 2010-06-11 01:30:24",
"",
"Mesurement Condition",
"------------------------------------------------------------------------------------",
"Instrument : 700HS2   Atmosphere : Vac.   Collimator : 10(mm)   Spin : No",
"------------------------------------------------------------------------------------",
"Analyte               TG kV   uA      FI Acq.(keV)  Anal.(keV)  Time(sec)     DT(%)",
"------------------------------------------------------------------------------------",
"Na                    Rh 50  210-Auto Al  0 - 20    0.8 - 1.2   Live -  179   14",
"",
"<Profile>",
"Channel_info_start",
"Channel : Na",
"Points : 2048",
"Range : 0.000000 - 20.48",
"Step : 0.010000",
"Channel_info_end",
"0",
"0",
"0",
"0",
"0",
"0",
"0",
"0",
"0",
"0",
"0",
"0",
"0",
"0",
"0",
"11",
"20",
"28",
"28",
"25",
"22",
"34",
"34",
"25",
"20",
"26",
"21",
"22",
"21",
"22",
"17",
"25",
"21",
"12",
"28",
"24",
"20",
"25",
"21",
"15",
"22",
"26",
"23",
"24",
"21",
"25",
"22",
"28",
"24",
"26",
"36",
"24",
"17",
"20",
"25",
"24",
"30",
"20",
"17",
"33",
"26",
"24",
"34",
"46",
"52",
"57",
"59",
"51",
"52",
"55",
"119",
"176",
"314",
"478",
"589",
"620",
"635",
"476",
"398",
"249",
"185",
"120",
"98",
"52",
"41",
"42",
"24",
"37",
"27",
"17",
"31",
"39",
"36",
"26",
"38",
"38",
"29",
"41",
"53",
"77",
"80",
"75",
"64",
"60",
"43",
"34",
"26",
"14",
"30",
"23",
"23",
"18",
"27",
"27",
"24",
"26",
"22",
"26",
"26",
"10",
"22",
"22",
"30",
"48",
"56",
"63",
"93",
"70",
"79",
"59",
"49",
"39",
"37",
"29",
"29",
"27",
"25",
"22",
"31",
"34",
"40",
"37",
"54",
"53",
"52",
"50",
"61",
"51",
"47",
"25",
"44",
"34",
"27",
"26",
"25",
"28",
"28",
"29",
"37",
"38",
"26",
"37",
"36",
"34",
"35",
"27",
"39",
"34",
"30",
"31",
"37",
"24",
"40",
"41",
"39",
"51",
"57",
"65",
"99",
"141",
"251",
"376",
"571",
"739",
"848",
"794",
"780",
"714",
"599",
"470",
"398",
"350",
"285",
"254",
"148",
"117",
"105",
"127",
"127",
"157",
"169",
"165",
"166",
"195",
"202",
"224",
"307",
"499",
"882",
"1416",
"2379",
"3643",
"5184",
"6092",
"6912",
"6501",
"5448",
"4240",
"2942",
"1713",
"970",
"504",
"307",
"272",
"374",
"587",
"989",
"1659",
"2465",
"3228",
"3989",
"4297",
"4278",
"3953",
"3315",
"2623",
"2023",
"1509",
"1102",
"793",
"563",
"498",
"519",
"581",
"746",
"969",
"1112",
"1099",
"1051",
"834",
"681",
"475",
"332",
"203",
"138",
"109",
"128",
"109",
"138",
"221",
"303",
"400",
"514",
"574",
"574",
"573",
"501",
"393",
"303",
"215",
"163",
"154",
"163",
"204",
"226",
"237",
"303",
"348",
"326",
"282",
"262",
"196",
"148",
"134",
"121",
"91",
"90",
"108",
"89",
"66",
"54",
"52",
"47",
"56",
"47",
"56",
"51",
"50",
"63",
"60",
"63",
"53",
"66",
"64",
"70",
"70",
"66",
"79",
"63",
"75",
"54",
"76",
"73",
"86",
"64",
"67",
"75",
"92",
"90",
"86",
"106",
"86",
"89",
"99",
"82",
"87",
"93",
"77",
"89",
"79",
"86",
"91",
"114",
"108",
"105",
"83",
"107",
"91",
"106",
"104",
"93",
"102",
"112",
"108",
"122",
"96",
"95",
"108",
"99",
"103",
"104",
"91",
"94",
"72",
"78",
"80",
"81",
"68",
"77",
"74",
"73",
"72",
"68",
"83",
"74",
"68",
"77",
"91",
"85",
"78",
"66",
"82",
"73",
"85",
"88",
"75",
"100",
"85",
"93",
"94",
"102",
"98",
"90",
"82",
"76",
"86",
"76",
"83",
"89",
"77",
"83",
"85",
"90",
"85",
"105",
"92",
"92",
"112",
"99",
"93",
"112",
"113",
"103",
"118",
"113",
"117",
"96",
"88",
"111",
"98",
"91",
"105",
"90",
"81",
"90",
"86",
"106",
"86",
"88",
"111",
"111",
"79",
"111",
"106",
"96",
"107",
"120",
"118",
"118",
"128",
"127",
"150",
"131",
"140",
"129",
"107",
"94",
"103",
"124",
"96",
"79",
"88",
"122",
"101",
"111",
"87",
"86",
"115",
"104",
"100",
"88",
"103",
"104",
"103",
"89",
"103",
"101",
"104",
"106",
"105",
"80",
"100",
"92",
"101",
"93",
"73",
"105",
"89",
"96",
"103",
"85",
"96",
"116",
"113",
"92",
"107",
"103",
"80",
"111",
"98",
"95",
"76",
"73",
"96",
"81",
"78",
"94",
"82",
"75",
"94",
"89",
"83",
"88",
"88",
"92",
"74",
"83",
"99",
"89",
"83",
"92",
"88",
"98",
"99",
"101",
"82",
"83",
"83",
"95",
"103",
"87",
"79",
"81",
"94",
"66",
"67",
"89",
"73",
"65",
"76",
"67",
"78",
"78",
"72",
"106",
"79",
"104",
"88",
"91",
"96",
"95",
"80",
"105",
"102",
"79",
"68",
"102",
"87",
"91",
"95",
"83",
"88",
"92",
"92",
"94",
"75",
"89",
"81",
"86",
"91",
"103",
"89",
"90",
"89",
"107",
"102",
"80",
"100",
"103",
"82",
"85",
"111",
"74",
"90",
"89",
"94",
"101",
"93",
"101",
"105",
"106",
"103",
"124",
"107",
"114",
"112",
"125",
"107",
"153",
"147",
"170",
"270",
"368",
"646",
"879",
"1382",
"2248",
"2973",
"4419",
"5650",
"7398",
"8681",
"10446",
"10996",
"12027",
"11745",
"11658",
"10423",
"9422",
"7743",
"6435",
"4771",
"3485",
"2380",
"1689",
"1002",
"659",
"413",
"290",
"181",
"156",
"116",
"102",
"92",
"90",
"82",
"91",
"104",
"73",
"113",
"94",
"86",
"99",
"76",
"77",
"103",
"80",
"83",
"77",
"77",
"93",
"86",
"95",
"88",
"88",
"79",
"83",
"91",
"104",
"76",
"91",
"93",
"99",
"89",
"105",
"87",
"114",
"103",
"134",
"124",
"137",
"147",
"198",
"285",
"339",
"483",
"648",
"814",
"971",
"1149",
"1398",
"1565",
"1811",
"1834",
"1870",
"1825",
"1717",
"1546",
"1419",
"1134",
"923",
"725",
"639",
"471",
"379",
"317",
"288",
"176",
"159",
"161",
"117",
"105",
"95",
"79",
"59",
"62",
"54",
"74",
"82",
"60",
"63",
"64",
"56",
"56",
"66",
"68",
"86",
"77",
"47",
"63",
"65",
"61",
"72",
"75",
"70",
"57",
"68",
"67",
"57",
"56",
"72",
"54",
"61",
"65",
"62",
"68",
"64",
"66",
"57",
"52",
"68",
"78",
"59",
"62",
"70",
"49",
"68",
"75",
"64",
"50",
"61",
"69",
"69",
"70",
"52",
"51",
"65",
"34",
"48",
"67",
"66",
"62",
"63",
"62",
"54",
"55",
"61",
"67",
"69",
"68",
"62",
"46",
"67",
"42",
"62",
"59",
"75",
"52",
"63",
"56",
"62",
"75",
"53",
"49",
"60",
"42",
"54",
"56",
"53",
"50",
"62",
"54",
"38",
"43",
"62",
"60",
"42",
"52",
"59",
"67",
"63",
"52",
"61",
"60",
"59",
"51",
"57",
"40",
"51",
"41",
"46",
"49",
"50",
"54",
"52",
"50",
"74",
"47",
"49",
"44",
"52",
"60",
"46",
"55",
"56",
"51",
"55",
"67",
"49",
"59",
"55",
"56",
"56",
"63",
"60",
"54",
"61",
"44",
"43",
"44",
"52",
"44",
"64",
"51",
"53",
"47",
"62",
"68",
"66",
"52",
"55",
"62",
"59",
"39",
"59",
"49",
"42",
"49",
"55",
"60",
"56",
"57",
"42",
"52",
"43",
"48",
"63",
"50",
"59",
"44",
"47",
"56",
"47",
"48",
"34",
"54",
"59",
"30",
"39",
"59",
"42",
"44",
"50",
"52",
"42",
"40",
"51",
"41",
"48",
"62",
"47",
"47",
"62",
"47",
"54",
"54",
"43",
"51",
"40",
"40",
"63",
"43",
"52",
"50",
"50",
"59",
"55",
"38",
"49",
"53",
"54",
"38",
"61",
"47",
"51",
"46",
"52",
"54",
"64",
"38",
"47",
"46",
"48",
"53",
"51",
"44",
"57",
"60",
"64",
"41",
"56",
"59",
"61",
"64",
"50",
"51",
"55",
"63",
"39",
"55",
"61",
"75",
"69",
"50",
"75",
"53",
"68",
"54",
"89",
"62",
"78",
"98",
"73",
"67",
"94",
"91",
"119",
"114",
"116",
"125",
"124",
"143",
"139",
"150",
"174",
"177",
"178",
"198",
"236",
"210",
"238",
"226",
"249",
"274",
"273",
"252",
"299",
"321",
"282",
"293",
"308",
"285",
"286",
"298",
"271",
"308",
"255",
"251",
"223",
"199",
"169",
"183",
"168",
"161",
"185",
"143",
"166",
"111",
"121",
"111",
"104",
"90",
"101",
"64",
"73",
"73",
"83",
"73",
"82",
"81",
"79",
"82",
"107",
"88",
"113",
"126",
"152",
"129",
"154",
"173",
"180",
"180",
"190",
"198",
"220",
"205",
"176",
"169",
"204",
"159",
"131",
"143",
"128",
"99",
"85",
"74",
"51",
"60",
"56",
"50",
"37",
"48",
"52",
"36",
"32812",
"Channel_info_start",
"Channel : Mg",
"Points : 0",
"Range : 0.000000 - 0.000000",
"Step : 0.010000",
"Channel_info_end",
"Channel_info_start",
"Channel : Al",
"Points : 0",
"Range : 0.000000 - 0.000000",
"Step : 0.010000",
"Channel_info_end",
"Channel_info_start",
"Channel : Si",
"Points : 0",
"Range : 0.000000 - 0.000000",
"Step : 0.010000",
"Channel_info_end",
"Channel_info_start",
"Channel : P ",
"Points : 0",
"Range : 0.000000 - 0.000000",
"Step : 0.010000",
"Channel_info_end",
"Channel_info_start",
"Channel : S ",
"Points : 0",
"Range : 0.000000 - 0.000000",
"Step : 0.010000",
"Channel_info_end",
"Channel_info_start",
"Channel : Cl",
"Points : 0",
"Range : 0.000000 - 0.000000",
"Step : 0.010000",
"Channel_info_end",
"Channel_info_start",
"Channel : K ",
"Points : 0",
"Range : 0.000000 - 0.000000",
"Step : 0.010000",
"Channel_info_end",
"Channel_info_start",
"Channel : Ca",
"Points : 0",
"Range : 0.000000 - 0.000000",
"Step : 0.010000",
"Channel_info_end",
"Channel_info_start",
"Channel : Ti",
"Points : 0",
"Range : 0.000000 - 0.000000",
"Step : 0.010000",
"Channel_info_end",
"Channel_info_start",
"Channel : V ",
"Points : 0",
"Range : 0.000000 - 0.000000",
"Step : 0.010000",
"Channel_info_end",
"Channel_info_start",
"Channel : Cr",
"Points : 0",
"Range : 0.000000 - 0.000000",
"Step : 0.010000",
"Channel_info_end",
"Channel_info_start",
"Channel : Mn",
"Points : 0",
"Range : 0.000000 - 0.000000",
"Step : 0.010000",
"Channel_info_end",
"Channel_info_start",
"Channel : Fe",
"Points : 0",
"Range : 0.000000 - 0.000000",
"Step : 0.010000",
"Channel_info_end",
"Channel_info_start",
"Channel : Cu",
"Points : 0",
"Range : 0.000000 - 0.000000",
"Step : 0.010000",
"Channel_info_end",
"Channel_info_start",
"Channel : Zn",
"Points : 0",
"Range : 0.000000 - 0.000000",
"Step : 0.010000",
"Channel_info_end",
"Channel_info_start",
"Channel : Sr",
"Points : 0",
"Range : 0.000000 - 0.000000",
"Step : 0.010000",
"Channel_info_end",
"Channel_info_start",
"Channel : Pb",
"Points : 0",
"Range : 0.000000 - 0.000000",
"Step : 0.010000",
"Channel_info_end",
"",
"Qualitative Result",
"--------------------------------------------------------------------------------",
"Element :  Br, P , Cs, Ce, Rh",
"",
"Peak List",
"--------------------------------------------------------------------------------",
"Channel               Line        keV     Net Int.(cps/uA)",
"--------------------------------------------------------------------------------",
"Na                    BrLa         1.50     0.186",
"                      P Ka         2.01     0.019",
"                      CsLaESC      2.52     0.021",
"                      ----         3.68     0.292",
"                      CsLa         4.28     2.589",
"                      CsLb1        4.63     1.625",
"                      CsLb2        4.93     0.380",
"                      CsLg1        5.27     0.155",
"                      CeLb1        5.27     0.044",
"                      CsLg2        5.54     0.107",
"                      BrKa        11.88     6.243",
"                      BrKb        13.27     0.937",
"                      RhKaC       19.22     0.128",
"                      ----        19.44     0.058",
"                      RhKa        20.08     0.103",
"--------------------------------------------------------------------------------",
"",
"Quantitative Result",
"--------------------------------------------------------------------------------",
"Analyte               Result             Std.Dev. Proc.-Calc. Line Intensity(cps/uA)",
"--------------------------------------------------------------------------------",
"====[No. 1 Layer]====< Layer1               >===============================",
"Layer1                   0.000 ug/cm2    -------- Flux       -------- --------",