File: inputs/edxCalibration/edx_raw/2010/junho/Cu 31521.20100611011417.csv
"Sample    : Cu 31521",
"Operator  : Luís",
"Comment  : cubatao-g-policarbonato",
"Group     : kerr2007ag180cal_lt",
"Date       : 2010-06-11 01:10:15",
"",
"Mesurement Condition",
"------------------------------------------------------------------------------------",
"Instrument : 700HS2   Atmosphere : Vac.   Collimator : 10(mm)   Spin : No",
"------------------------------------------------------------------------------------",
"Analyte               TG kV   uA      FI Acq.(keV)  Anal.(keV)  Time(sec)     DT(%)",
"------------------------------------------------------------------------------------",
"Na                    Rh 50  152-Auto Al  0 - 20    0.8 - 1.2   Live -  179   15",
"",
"<Profile>",
"Channel_info_start",
"Channel : Na",
"Points : 2048",
"Range : 0.000000 - 20.48",
"Step : 0.010000",
"Channel_info_end",
"0",
"0",
"0",
"0",
"0",
"0",
"0",
"0",
"0",
"0",
"0",
"0",
"0",
"0",
"0",
"4",
"15",
"4",
"20",
"11",
"5",
"9",
"9",
"8",
"13",
"8",
"15",
"10",
"11",
"8",
"13",
"12",
"8",
"8",
"8",
"8",
"8",
"17",
"24",
"16",
"18",
"37",
"42",
"43",
"132",
"146",
"189",
"243",
"231",
"172",
"129",
"81",
"58",
"30",
"27",
"15",
"18",
"13",
"9",
"9",
"8",
"10",
"8",
"10",
"10",
"8",
"3",
"4",
"13",
"12",
"13",
"8",
"14",
"7",
"14",
"7",
"13",
"14",
"13",
"12",
"15",
"7",
"12",
"13",
"8",
"13",
"12",
"14",
"10",
"22",
"9",
"20",
"11",
"12",
"17",
"20",
"23",
"35",
"45",
"60",
"61",
"53",
"31",
"27",
"17",
"20",
"14",
"13",
"14",
"11",
"11",
"7",
"18",
"18",
"20",
"25",
"16",
"5",
"8",
"13",
"10",
"9",
"12",
"11",
"10",
"9",
"7",
"5",
"8",
"9",
"8",
"22",
"12",
"9",
"8",
"14",
"13",
"11",
"16",
"4",
"11",
"15",
"17",
"12",
"13",
"11",
"11",
"16",
"16",
"10",
"12",
"10",
"5",
"8",
"13",
"11",
"11",
"13",
"9",
"9",
"11",
"9",
"8",
"10",
"14",
"10",
"13",
"15",
"12",
"12",
"11",
"13",
"17",
"15",
"11",
"17",
"17",
"36",
"49",
"84",
"173",
"274",
"407",
"462",
"569",
"561",
"495",
"383",
"253",
"151",
"85",
"47",
"37",
"37",
"28",
"41",
"49",
"45",
"79",
"76",
"68",
"78",
"84",
"63",
"63",
"34",
"28",
"26",
"18",
"16",
"10",
"16",
"20",
"16",
"17",
"18",
"28",
"26",
"22",
"27",
"16",
"30",
"35",
"33",
"36",
"29",
"20",
"23",
"27",
"33",
"20",
"26",
"37",
"34",
"23",
"24",
"22",
"21",
"23",
"17",
"17",
"27",
"28",
"25",
"22",
"17",
"28",
"18",
"18",
"17",
"22",
"33",
"30",
"22",
"26",
"24",
"21",
"28",
"30",
"33",
"18",
"27",
"22",
"20",
"17",
"25",
"27",
"26",
"25",
"27",
"26",
"35",
"28",
"38",
"36",
"41",
"30",
"38",
"37",
"27",
"39",
"29",
"33",
"27",
"29",
"47",
"34",
"42",
"43",
"40",
"40",
"41",
"55",
"41",
"34",
"41",
"35",
"46",
"54",
"46",
"62",
"47",
"53",
"60",
"47",
"55",
"68",
"62",
"71",
"97",
"76",
"94",
"99",
"98",
"119",
"132",
"132",
"102",
"79",
"91",
"73",
"83",
"76",
"63",
"72",
"73",
"63",
"65",
"63",
"41",
"58",
"55",
"50",
"50",
"67",
"55",
"60",
"68",
"74",
"60",
"72",
"81",
"71",
"64",
"75",
"80",
"68",
"93",
"76",
"94",
"58",
"79",
"79",
"78",
"75",
"94",
"102",
"65",
"97",
"96",
"86",
"73",
"65",
"80",
"70",
"63",
"85",
"75",
"84",
"86",
"87",
"91",
"96",
"85",
"106",
"99",
"90",
"83",
"81",
"93",
"83",
"134",
"114",
"114",
"130",
"112",
"129",
"151",
"182",
"255",
"419",
"618",
"1100",
"2102",
"3795",
"6212",
"10000",
"13819",
"18981",
"23414",
"27909",
"29183",
"30034",
"27725",
"24626",
"19365",
"15082",
"10391",
"6822",
"4118",
"2462",
"1225",
"727",
"383",
"232",
"161",
"128",
"116",
"115",
"91",
"96",
"100",
"102",
"103",
"94",
"124",
"123",
"104",
"152",
"146",
"161",
"178",
"202",
"237",
"277",
"366",
"471",
"684",
"1010",
"1462",
"1998",
"2418",
"3165",
"3533",
"4026",
"3701",
"3804",
"3242",
"3062",
"2244",
"1628",
"1121",
"770",
"492",
"280",
"201",
"115",
"90",
"72",
"62",
"67",
"50",
"53",
"60",
"61",
"49",
"50",
"53",
"63",
"50",
"41",
"53",
"67",
"68",
"52",
"60",
"71",
"62",
"76",
"59",
"74",
"70",
"59",
"63",
"45",
"38",
"51",
"65",
"50",
"46",
"54",
"49",
"59",
"50",
"46",
"45",
"59",
"59",
"54",
"43",
"56",
"47",
"46",
"45",
"51",
"42",
"50",
"61",
"56",
"56",
"58",
"49",
"43",
"47",
"51",
"55",
"53",
"54",
"58",
"64",
"51",
"48",
"63",
"48",
"51",
"43",
"51",
"43",
"65",
"60",
"48",
"39",
"35",
"60",
"48",
"46",
"54",
"42",
"43",
"54",
"60",
"52",
"55",
"54",
"36",
"63",
"48",
"50",
"51",
"58",
"61",
"52",
"58",
"59",
"48",
"58",
"51",
"49",
"53",
"50",
"36",
"51",
"43",
"45",
"67",
"42",
"55",
"38",
"47",
"48",
"39",
"49",
"49",
"56",
"56",
"46",
"51",
"43",
"50",
"42",
"59",
"47",
"48",
"55",
"41",
"56",
"43",
"48",
"48",
"39",
"52",
"58",
"47",
"51",
"46",
"38",
"46",
"46",
"50",
"50",
"39",
"39",
"40",
"47",
"54",
"45",
"52",
"58",
"51",
"43",
"45",
"43",
"47",
"53",
"45",
"39",
"46",
"47",
"45",
"41",
"41",
"46",
"47",
"47",
"59",
"33",
"40",
"38",
"47",
"54",
"39",
"42",
"35",
"43",
"55",
"40",
"49",
"42",
"43",
"39",
"43",
"53",
"59",
"41",
"54",
"46",
"51",
"34",
"46",
"40",
"60",
"29",
"47",
"49",
"41",
"52",
"47",
"52",
"34",
"41",
"41",
"53",
"40",
"31",
"28",
"50",
"36",
"48",
"36",
"34",
"40",
"43",
"45",
"35",
"42",
"41",
"46",
"41",
"41",
"42",
"38",
"35",
"46",
"42",
"25",
"50",
"33",
"45",
"55",
"53",
"48",
"33",
"39",
"40",
"40",
"43",
"42",
"45",
"43",
"41",
"40",
"37",
"39",
"36",
"49",
"47",
"35",
"42",
"29",
"31",
"50",
"34",
"51",
"46",
"39",
"34",
"37",
"55",
"25",
"48",
"39",
"37",
"38",
"24",
"35",
"38",
"42",
"40",
"29",
"45",
"42",
"30",
"37",
"36",
"35",
"31",
"37",
"29",
"40",
"47",
"41",
"29",
"37",
"23",
"37",
"38",
"41",
"31",
"36",
"45",
"34",
"22",
"37",
"28",
"34",
"46",
"33",
"31",
"39",
"28",
"27",
"39",
"43",
"31",
"33",
"27",
"36",
"30",
"40",
"25",
"42",
"28",
"38",
"50",
"36",
"31",
"41",
"36",
"28",
"31",
"34",
"34",
"25",
"29",
"49",
"33",
"33",
"26",
"25",
"47",
"47",
"31",
"50",
"45",
"48",
"46",
"43",
"56",
"72",
"52",
"79",
"90",
"76",
"86",
"70",
"84",
"78",
"71",
"50",
"56",
"56",
"51",
"43",
"49",
"43",
"34",
"36",
"28",
"40",
"26",
"43",
"38",
"33",
"33",
"47",
"35",
"34",
"36",
"25",
"42",
"54",
"31",
"47",
"46",
"30",
"28",
"28",
"35",
"30",
"38",
"34",
"40",
"30",
"43",
"55",
"41",
"50",
"58",
"53",
"47",
"40",
"48",
"45",
"38",
"37",
"23",
"38",
"45",
"38",
"33",
"23",
"43",
"35",
"52",
"64",
"63",
"48",
"60",
"55",
"52",
"68",
"61",
"61",
"53",
"68",
"48",
"71",
"54",
"51",
"39",
"43",
"34",
"31",
"27",
"36",
"37",
"37",
"33",
"36",
"27",
"34",
"34",
"36",
"37",
"28",
"34",
"34",
"31",
"29",
"36",
"43",
"37",
"37",
"26",
"36",
"31",
"23",
"24",
"25",
"42",
"42",
"43",
"40",
"49",
"33",
"38",
"37",
"40",
"34",
"33",
"43",
"40",
"45",
"53",
"48",
"41",
"45",
"45",
"53",
"47",
"51",
"47",
"50",
"58",
"81",
"66",
"55",
"74",
"78",
"78",
"85",
"99",
"99",
"118",
"132",
"136",
"144",
"134",
"139",
"174",
"185",
"169",
"163",
"179",
"207",
"225",
"235",
"230",
"225",
"232",
"261",
"206",
"207",
"185",
"195",
"217",
"185",
"177",
"186",
"129",
"153",
"155",
"130",
"130",
"125",
"106",
"104",
"103",
"97",
"83",
"71",
"68",
"62",
"63",
"68",
"43",
"52",
"68",
"48",
"56",
"59",
"62",
"67",
"60",
"56",
"90",
"81",
"79",
"97",
"117",
"112",
"102",
"104",
"93",
"106",
"94",
"92",
"96",
"91",
"72",
"88",
"72",
"55",
"62",
"48",
"33",
"45",
"23",
"25",
"28",
"27",
"20",
"23",
"38",
"15293",
"Channel_info_start",
"Channel : Mg",
"Points : 0",
"Range : 0.000000 - 0.000000",
"Step : 0.010000",
"Channel_info_end",
"Channel_info_start",
"Channel : Al",
"Points : 0",
"Range : 0.000000 - 0.000000",
"Step : 0.010000",
"Channel_info_end",
"Channel_info_start",
"Channel : Si",
"Points : 0",
"Range : 0.000000 - 0.000000",
"Step : 0.010000",
"Channel_info_end",
"Channel_info_start",
"Channel : P ",
"Points : 0",
"Range : 0.000000 - 0.000000",
"Step : 0.010000",
"Channel_info_end",
"Channel_info_start",
"Channel : S ",
"Points : 0",
"Range : 0.000000 - 0.000000",
"Step : 0.010000",
"Channel_info_end",
"Channel_info_start",
"Channel : Cl",
"Points : 0",
"Range : 0.000000 - 0.000000",
"Step : 0.010000",
"Channel_info_end",
"Channel_info_start",
"Channel : K ",
"Points : 0",
"Range : 0.000000 - 0.000000",
"Step : 0.010000",
"Channel_info_end",
"Channel_info_start",
"Channel : Ca",
"Points : 0",
"Range : 0.000000 - 0.000000",
"Step : 0.010000",
"Channel_info_end",
"Channel_info_start",
"Channel : Ti",
"Points : 0",
"Range : 0.000000 - 0.000000",
"Step : 0.010000",
"Channel_info_end",
"Channel_info_start",
"Channel : V ",
"Points : 0",
"Range : 0.000000 - 0.000000",
"Step : 0.010000",
"Channel_info_end",
"Channel_info_start",
"Channel : Cr",
"Points : 0",
"Range : 0.000000 - 0.000000",
"Step : 0.010000",
"Channel_info_end",
"Channel_info_start",
"Channel : Mn",
"Points : 0",
"Range : 0.000000 - 0.000000",
"Step : 0.010000",
"Channel_info_end",
"Channel_info_start",
"Channel : Fe",
"Points : 0",
"Range : 0.000000 - 0.000000",
"Step : 0.010000",
"Channel_info_end",
"Channel_info_start",
"Channel : Cu",
"Points : 0",
"Range : 0.000000 - 0.000000",
"Step : 0.010000",
"Channel_info_end",
"Channel_info_start",
"Channel : Zn",
"Points : 0",
"Range : 0.000000 - 0.000000",
"Step : 0.010000",
"Channel_info_end",
"Channel_info_start",
"Channel : Sr",
"Points : 0",
"Range : 0.000000 - 0.000000",
"Step : 0.010000",
"Channel_info_end",
"Channel_info_start",
"Channel : Pb",
"Points : 0",
"Range : 0.000000 - 0.000000",
"Step : 0.010000",
"Channel_info_end",
"",
"Qualitative Result",
"--------------------------------------------------------------------------------",
"Element :  Cu, P , Ca, Ru",
"",
"Peak List",
"--------------------------------------------------------------------------------",
"Channel               Line        keV     Net Int.(cps/uA)",
"--------------------------------------------------------------------------------",
"Na                    CuLa         0.94     0.095",
"                      P Ka         1.98     0.023",
"                      CaKa         3.68     0.287",
"                      CaKb         4.00     0.036",
"                      CuKaESC      6.29     0.050",
"                      CuKa         8.04    19.208",
"                      CuKb         8.88     2.576",
"                      CuKaSUM     16.03     0.043",
"                      RuKa        19.19     0.141",
"                      ----        19.44     0.057",
"                      ----        19.99     0.064",
"--------------------------------------------------------------------------------",
"",
"Quantitative Result",
"--------------------------------------------------------------------------------",
"Analyte               Result             Std.Dev. Proc.-Calc. Line Intensity(cps/uA)",
"--------------------------------------------------------------------------------",
"====[No. 1 Layer]====< Layer1               >===============================",
"Layer1                   0.000 ug/cm2    -------- Flux       -------- --------",