File: inputs/edxCalibration/edx_raw/2010/junho/DyF3 31517.20100626154339.csv
"Sample    : DyF3 31517",
"Operator  : luis",
"Comment  : cubatao-g-policarbonato",
"Group     : kerr2007ag180cal_lt",
"Date       : 2010-06-26 15:39:36",
"",
"Mesurement Condition",
"------------------------------------------------------------------------------------",
"Instrument : 700HS2   Atmosphere : Vac.   Collimator : 10(mm)   Spin : No",
"------------------------------------------------------------------------------------",
"Analyte               TG kV   uA      FI Acq.(keV)  Anal.(keV)  Time(sec)     DT(%)",
"------------------------------------------------------------------------------------",
"Na                    Rh 50  268-Auto Al  0 - 20    0.8 - 1.2   Live -  179   15",
"",
"<Profile>",
"Channel_info_start",
"Channel : Na",
"Points : 2048",
"Range : 0.000000 - 20.48",
"Step : 0.010000",
"Channel_info_end",
"0",
"0",
"0",
"0",
"0",
"0",
"0",
"0",
"0",
"0",
"0",
"0",
"0",
"0",
"0",
"10",
"15",
"20",
"15",
"24",
"11",
"14",
"17",
"24",
"23",
"20",
"14",
"26",
"17",
"14",
"12",
"17",
"20",
"18",
"20",
"17",
"21",
"20",
"9",
"20",
"13",
"13",
"21",
"24",
"21",
"21",
"37",
"55",
"88",
"93",
"109",
"100",
"84",
"78",
"50",
"42",
"41",
"41",
"42",
"54",
"76",
"138",
"298",
"519",
"811",
"1012",
"1151",
"1112",
"976",
"651",
"423",
"240",
"162",
"120",
"116",
"129",
"126",
"117",
"106",
"104",
"93",
"66",
"81",
"75",
"85",
"104",
"110",
"92",
"66",
"47",
"40",
"36",
"27",
"41",
"29",
"39",
"49",
"49",
"73",
"78",
"98",
"95",
"90",
"52",
"40",
"30",
"23",
"20",
"20",
"15",
"18",
"14",
"24",
"26",
"14",
"23",
"20",
"8",
"12",
"15",
"17",
"22",
"17",
"13",
"22",
"24",
"14",
"15",
"14",
"14",
"16",
"17",
"16",
"30",
"29",
"28",
"27",
"17",
"22",
"23",
"27",
"25",
"27",
"18",
"17",
"17",
"21",
"16",
"17",
"11",
"24",
"22",
"16",
"14",
"17",
"18",
"22",
"23",
"23",
"14",
"24",
"20",
"17",
"26",
"17",
"20",
"27",
"25",
"20",
"23",
"23",
"20",
"32",
"23",
"35",
"30",
"30",
"46",
"87",
"174",
"294",
"442",
"670",
"833",
"984",
"1011",
"903",
"742",
"480",
"319",
"172",
"101",
"73",
"60",
"70",
"47",
"77",
"70",
"135",
"135",
"153",
"171",
"136",
"131",
"103",
"65",
"70",
"55",
"41",
"38",
"36",
"49",
"36",
"42",
"39",
"47",
"53",
"48",
"51",
"59",
"52",
"51",
"60",
"58",
"62",
"70",
"75",
"75",
"68",
"89",
"85",
"64",
"84",
"81",
"106",
"112",
"115",
"100",
"134",
"85",
"86",
"98",
"78",
"67",
"74",
"45",
"62",
"48",
"52",
"58",
"71",
"62",
"60",
"62",
"55",
"35",
"61",
"61",
"64",
"65",
"61",
"66",
"65",
"76",
"61",
"53",
"67",
"68",
"71",
"101",
"75",
"75",
"79",
"99",
"109",
"95",
"99",
"101",
"105",
"106",
"147",
"187",
"247",
"312",
"431",
"580",
"584",
"677",
"710",
"676",
"549",
"463",
"334",
"247",
"178",
"172",
"149",
"133",
"116",
"121",
"112",
"124",
"134",
"124",
"127",
"137",
"134",
"138",
"154",
"130",
"195",
"174",
"172",
"198",
"311",
"449",
"772",
"1413",
"2433",
"3805",
"5899",
"8191",
"10768",
"12795",
"14203",
"14219",
"13603",
"11381",
"8991",
"6454",
"4458",
"2601",
"1565",
"933",
"566",
"384",
"236",
"186",
"175",
"166",
"175",
"164",
"195",
"161",
"172",
"172",
"197",
"164",
"192",
"190",
"215",
"258",
"346",
"487",
"769",
"1230",
"1940",
"3050",
"4225",
"5596",
"6990",
"7842",
"8591",
"8394",
"7841",
"6902",
"6153",
"4751",
"3977",
"2901",
"2307",
"1829",
"1423",
"1115",
"961",
"938",
"1139",
"1309",
"1636",
"1942",
"2310",
"2394",
"2554",
"2281",
"2137",
"1733",
"1318",
"981",
"741",
"490",
"380",
"278",
"195",
"195",
"164",
"139",
"153",
"120",
"155",
"156",
"145",
"160",
"191",
"181",
"197",
"204",
"225",
"189",
"206",
"214",
"202",
"237",
"314",
"335",
"474",
"565",
"750",
"930",
"1055",
"1218",
"1353",
"1301",
"1349",
"1175",
"991",
"823",
"649",
"510",
"491",
"386",
"398",
"393",
"475",
"498",
"627",
"627",
"644",
"589",
"617",
"521",
"471",
"403",
"322",
"276",
"276",
"187",
"203",
"163",
"222",
"176",
"199",
"230",
"181",
"196",
"161",
"152",
"151",
"139",
"113",
"130",
"130",
"105",
"129",
"108",
"129",
"118",
"105",
"133",
"131",
"136",
"90",
"131",
"131",
"123",
"137",
"104",
"125",
"112",
"116",
"129",
"128",
"110",
"128",
"123",
"129",
"112",
"117",
"125",
"117",
"95",
"109",
"98",
"100",
"105",
"118",
"92",
"110",
"126",
"79",
"92",
"106",
"126",
"113",
"103",
"110",
"124",
"106",
"106",
"100",
"115",
"111",
"118",
"135",
"100",
"112",
"108",
"118",
"92",
"111",
"108",
"123",
"110",
"117",
"120",
"105",
"120",
"104",
"122",
"115",
"110",
"108",
"87",
"112",
"104",
"114",
"112",
"113",
"99",
"103",
"109",
"125",
"135",
"143",
"100",
"114",
"108",
"106",
"111",
"125",
"118",
"103",
"99",
"97",
"101",
"124",
"98",
"108",
"103",
"111",
"113",
"121",
"101",
"106",
"95",
"118",
"118",
"112",
"114",
"109",
"128",
"110",
"111",
"100",
"87",
"104",
"108",
"104",
"113",
"104",
"100",
"95",
"88",
"116",
"99",
"100",
"129",
"109",
"108",
"114",
"83",
"101",
"103",
"105",
"112",
"102",
"106",
"79",
"93",
"88",
"96",
"102",
"84",
"91",
"95",
"97",
"95",
"112",
"83",
"124",
"92",
"96",
"104",
"85",
"98",
"108",
"110",
"97",
"106",
"92",
"115",
"77",
"105",
"86",
"106",
"89",
"85",
"89",
"86",
"97",
"113",
"92",
"83",
"117",
"90",
"108",
"90",
"84",
"90",
"88",
"77",
"99",
"97",
"92",
"92",
"99",
"105",
"92",
"92",
"95",
"123",
"115",
"86",
"101",
"102",
"106",
"95",
"90",
"77",
"92",
"97",
"90",
"76",
"102",
"87",
"96",
"93",
"105",
"85",
"85",
"85",
"101",
"97",
"104",
"73",
"83",
"65",
"90",
"77",
"67",
"84",
"72",
"83",
"89",
"93",
"92",
"113",
"97",
"97",
"113",
"78",
"85",
"85",
"96",
"83",
"90",
"84",
"88",
"71",
"91",
"83",
"85",
"88",
"85",
"95",
"96",
"83",
"89",
"57",
"92",
"89",
"84",
"91",
"81",
"85",
"88",
"79",
"97",
"85",
"79",
"84",
"81",
"64",
"76",
"72",
"85",
"83",
"99",
"78",
"83",
"68",
"80",
"73",
"83",
"60",
"86",
"73",
"78",
"66",
"86",
"85",
"70",
"86",
"91",
"89",
"74",
"83",
"88",
"84",
"74",
"74",
"84",
"74",
"72",
"92",
"83",
"49",
"81",
"61",
"68",
"80",
"70",
"88",
"75",
"85",
"85",
"67",
"71",
"68",
"77",
"76",
"79",
"71",
"83",
"73",
"71",
"75",
"61",
"70",
"72",
"77",
"66",
"78",
"72",
"68",
"87",
"61",
"73",
"77",
"65",
"78",
"58",
"62",
"77",
"68",
"64",
"55",
"63",
"79",
"79",
"73",
"75",
"51",
"73",
"72",
"84",
"61",
"75",
"62",
"66",
"61",
"66",
"52",
"61",
"73",
"51",
"67",
"76",
"67",
"65",
"55",
"77",
"54",
"54",
"51",
"72",
"72",
"68",
"55",
"75",
"53",
"63",
"63",
"83",
"62",
"54",
"48",
"73",
"52",
"63",
"59",
"67",
"64",
"77",
"52",
"57",
"70",
"67",
"63",
"78",
"70",
"66",
"68",
"84",
"74",
"53",
"70",
"80",
"54",
"62",
"59",
"78",
"67",
"63",
"60",
"48",
"72",
"59",
"74",
"66",
"67",
"79",
"65",
"62",
"58",
"65",
"72",
"63",
"47",
"72",
"71",
"75",
"58",
"76",
"52",
"62",
"64",
"57",
"67",
"61",
"65",
"72",
"43",
"68",
"75",
"70",
"59",
"91",
"59",
"47",
"65",
"74",
"66",
"70",
"65",
"72",
"61",
"81",
"77",
"57",
"64",
"66",
"70",
"85",
"63",
"88",
"77",
"55",
"80",
"87",
"68",
"87",
"86",
"95",
"72",
"84",
"75",
"77",
"85",
"115",
"86",
"92",
"108",
"106",
"106",
"129",
"113",
"121",
"135",
"128",
"121",
"147",
"142",
"186",
"189",
"197",
"226",
"234",
"231",
"259",
"317",
"305",
"272",
"375",
"349",
"365",
"415",
"372",
"400",
"372",
"412",
"427",
"377",
"375",
"398",
"371",
"361",
"389",
"331",
"318",
"291",
"336",
"276",
"258",
"253",
"225",
"204",
"221",
"177",
"164",
"161",
"137",
"127",
"137",
"133",
"110",
"104",
"121",
"99",
"97",
"99",
"110",
"108",
"129",
"131",
"142",
"129",
"150",
"187",
"193",
"226",
"226",
"235",
"278",
"276",
"288",
"288",
"293",
"272",
"276",
"224",
"189",
"188",
"153",
"140",
"135",
"106",
"96",
"90",
"87",
"76",
"76",
"48",
"61",
"40",
"29605",
"Channel_info_start",
"Channel : Mg",
"Points : 0",
"Range : 0.000000 - 0.000000",
"Step : 0.010000",
"Channel_info_end",
"Channel_info_start",
"Channel : Al",
"Points : 0",
"Range : 0.000000 - 0.000000",
"Step : 0.010000",
"Channel_info_end",
"Channel_info_start",
"Channel : Si",
"Points : 0",
"Range : 0.000000 - 0.000000",
"Step : 0.010000",
"Channel_info_end",
"Channel_info_start",
"Channel : P ",
"Points : 0",
"Range : 0.000000 - 0.000000",
"Step : 0.010000",
"Channel_info_end",
"Channel_info_start",
"Channel : S ",
"Points : 0",
"Range : 0.000000 - 0.000000",
"Step : 0.010000",
"Channel_info_end",
"Channel_info_start",
"Channel : Cl",
"Points : 0",
"Range : 0.000000 - 0.000000",
"Step : 0.010000",
"Channel_info_end",
"Channel_info_start",
"Channel : K ",
"Points : 0",
"Range : 0.000000 - 0.000000",
"Step : 0.010000",
"Channel_info_end",
"Channel_info_start",
"Channel : Ca",
"Points : 0",
"Range : 0.000000 - 0.000000",
"Step : 0.010000",
"Channel_info_end",
"Channel_info_start",
"Channel : Ti",
"Points : 0",
"Range : 0.000000 - 0.000000",
"Step : 0.010000",
"Channel_info_end",
"Channel_info_start",
"Channel : V ",
"Points : 0",
"Range : 0.000000 - 0.000000",
"Step : 0.010000",
"Channel_info_end",
"Channel_info_start",
"Channel : Cr",
"Points : 0",
"Range : 0.000000 - 0.000000",
"Step : 0.010000",
"Channel_info_end",
"Channel_info_start",
"Channel : Mn",
"Points : 0",
"Range : 0.000000 - 0.000000",
"Step : 0.010000",
"Channel_info_end",
"Channel_info_start",
"Channel : Fe",
"Points : 0",
"Range : 0.000000 - 0.000000",
"Step : 0.010000",
"Channel_info_end",
"Channel_info_start",
"Channel : Cu",
"Points : 0",
"Range : 0.000000 - 0.000000",
"Step : 0.010000",
"Channel_info_end",
"Channel_info_start",
"Channel : Zn",
"Points : 0",
"Range : 0.000000 - 0.000000",
"Step : 0.010000",
"Channel_info_end",
"Channel_info_start",
"Channel : Sr",
"Points : 0",
"Range : 0.000000 - 0.000000",
"Step : 0.010000",
"Channel_info_end",
"Channel_info_start",
"Channel : Pb",
"Points : 0",
"Range : 0.000000 - 0.000000",
"Step : 0.010000",
"Channel_info_end",
"",
"Qualitative Result",
"--------------------------------------------------------------------------------",
"Element :  Na, Dy, Yb, Si, P , Ca, Ru",
"",
"Peak List",
"--------------------------------------------------------------------------------",
"Channel               Line        keV     Net Int.(cps/uA)",
"--------------------------------------------------------------------------------",
"Na                    NaKa         1.01     0.020",
"                      DyMa         1.32     0.261",
"                      YbMa         1.54     0.019",
"                      SiKa         1.70     0.017",
"                      P Ka         2.02     0.018",
"                      CaKa         3.70     0.283",
"                      CaKb         4.01     0.038",
"                      DyLaESC      4.72     0.020",
"                      DyLL         5.76     0.205",
"                      DyLa         6.49     4.859",
"                      DyLb1        7.25     2.906",
"                      DyLb2        7.64     0.803",
"                      DyLg1        8.40     0.340",
"                      YbLb1        8.40     0.087",
"                      DyLg2        8.72     0.180",
"                      RuKa        19.32     0.121",
"--------------------------------------------------------------------------------",
"",
"Quantitative Result",
"--------------------------------------------------------------------------------",
"Analyte               Result             Std.Dev. Proc.-Calc. Line Intensity(cps/uA)",
"--------------------------------------------------------------------------------",
"====[No. 1 Layer]====< Layer1               >===============================",
"Layer1                  19.159 ug/cm2    -------- Flux       -------- --------",
"Na                      19.159 ug/cm2    -------- ********** -------- --------",