File: inputs/edxCalibration/edx_raw/2010/junho/Fe 31500.20100525220154.csv
"Sample    : Fe 31500",
"Operator  : luisf",
"Comment  : cubatao-g-policarbonato",
"Group     : kerr2007ag180cal_lt",
"Date       : 2010-05-25 21:57:53",
"",
"Mesurement Condition",
"------------------------------------------------------------------------------------",
"Instrument : 700HS2   Atmosphere : Vac.   Collimator : 10(mm)   Spin : No",
"------------------------------------------------------------------------------------",
"Analyte               TG kV   uA      FI Acq.(keV)  Anal.(keV)  Time(sec)     DT(%)",
"------------------------------------------------------------------------------------",
"Na                    Rh 50  168-Auto Al  0 - 20    0.8 - 1.2   Live -  179   14",
"",
"<Profile>",
"Channel_info_start",
"Channel : Na",
"Points : 2048",
"Range : 0.000000 - 20.48",
"Step : 0.010000",
"Channel_info_end",
"0",
"0",
"0",
"0",
"0",
"0",
"0",
"0",
"0",
"0",
"0",
"0",
"0",
"0",
"0",
"1",
"11",
"5",
"8",
"10",
"9",
"9",
"10",
"4",
"8",
"16",
"9",
"13",
"11",
"14",
"9",
"8",
"15",
"15",
"22",
"15",
"27",
"20",
"22",
"17",
"9",
"16",
"12",
"9",
"8",
"3",
"16",
"5",
"10",
"13",
"7",
"13",
"13",
"9",
"10",
"9",
"7",
"7",
"9",
"14",
"3",
"10",
"11",
"14",
"9",
"11",
"14",
"9",
"12",
"10",
"17",
"5",
"9",
"22",
"18",
"18",
"10",
"11",
"16",
"8",
"5",
"14",
"15",
"12",
"17",
"15",
"11",
"22",
"15",
"16",
"15",
"18",
"12",
"17",
"17",
"21",
"27",
"27",
"55",
"54",
"65",
"55",
"54",
"33",
"34",
"22",
"16",
"13",
"18",
"11",
"12",
"12",
"9",
"4",
"15",
"13",
"12",
"5",
"12",
"11",
"5",
"13",
"10",
"12",
"7",
"15",
"10",
"14",
"7",
"12",
"8",
"14",
"13",
"17",
"20",
"17",
"15",
"17",
"16",
"18",
"11",
"12",
"17",
"17",
"8",
"13",
"16",
"20",
"9",
"7",
"12",
"14",
"15",
"13",
"15",
"7",
"22",
"11",
"13",
"12",
"16",
"8",
"7",
"18",
"12",
"7",
"15",
"15",
"8",
"20",
"14",
"15",
"18",
"21",
"17",
"20",
"24",
"36",
"58",
"104",
"174",
"298",
"435",
"541",
"678",
"641",
"597",
"446",
"293",
"194",
"134",
"65",
"46",
"36",
"36",
"49",
"58",
"54",
"87",
"95",
"115",
"75",
"84",
"78",
"58",
"41",
"45",
"26",
"34",
"22",
"20",
"29",
"32",
"22",
"20",
"29",
"24",
"23",
"39",
"28",
"32",
"39",
"32",
"33",
"41",
"46",
"51",
"68",
"78",
"95",
"131",
"162",
"151",
"171",
"133",
"118",
"100",
"61",
"75",
"50",
"36",
"26",
"48",
"34",
"24",
"42",
"37",
"30",
"35",
"39",
"41",
"50",
"43",
"36",
"28",
"48",
"43",
"48",
"46",
"46",
"53",
"53",
"67",
"62",
"60",
"70",
"63",
"68",
"73",
"72",
"80",
"50",
"74",
"65",
"74",
"74",
"51",
"58",
"61",
"56",
"67",
"68",
"81",
"64",
"56",
"70",
"70",
"72",
"63",
"64",
"63",
"75",
"58",
"70",
"84",
"86",
"90",
"68",
"76",
"99",
"113",
"97",
"135",
"138",
"147",
"141",
"171",
"191",
"227",
"344",
"667",
"1113",
"2280",
"4236",
"7540",
"11793",
"17755",
"23387",
"29220",
"31837",
"33189",
"30523",
"26562",
"20254",
"15113",
"9419",
"5761",
"3308",
"1646",
"808",
"438",
"236",
"174",
"163",
"156",
"129",
"147",
"135",
"126",
"135",
"191",
"194",
"236",
"300",
"399",
"626",
"943",
"1382",
"2008",
"2612",
"3365",
"3881",
"4534",
"4026",
"3818",
"3312",
"2727",
"1947",
"1278",
"810",
"487",
"288",
"164",
"99",
"87",
"64",
"58",
"56",
"61",
"48",
"64",
"62",
"67",
"54",
"65",
"85",
"58",
"68",
"48",
"50",
"65",
"56",
"58",
"64",
"53",
"45",
"51",
"49",
"68",
"48",
"56",
"66",
"63",
"62",
"68",
"68",
"65",
"79",
"64",
"73",
"52",
"81",
"86",
"58",
"65",
"64",
"56",
"60",
"66",
"53",
"56",
"47",
"67",
"63",
"58",
"63",
"73",
"65",
"68",
"56",
"73",
"66",
"77",
"63",
"55",
"72",
"80",
"64",
"84",
"93",
"86",
"125",
"104",
"87",
"106",
"102",
"72",
"80",
"71",
"76",
"58",
"71",
"52",
"62",
"51",
"70",
"53",
"50",
"71",
"56",
"63",
"60",
"59",
"60",
"61",
"79",
"53",
"50",
"61",
"64",
"47",
"54",
"53",
"53",
"53",
"58",
"58",
"50",
"56",
"32",
"65",
"65",
"53",
"55",
"48",
"59",
"56",
"43",
"60",
"63",
"72",
"55",
"68",
"58",
"52",
"72",
"63",
"70",
"42",
"50",
"63",
"64",
"51",
"77",
"66",
"61",
"67",
"60",
"56",
"71",
"52",
"70",
"72",
"62",
"63",
"51",
"83",
"65",
"73",
"72",
"56",
"70",
"65",
"54",
"74",
"79",
"58",
"54",
"49",
"55",
"62",
"62",
"54",
"70",
"52",
"71",
"60",
"59",
"61",
"48",
"63",
"37",
"67",
"48",
"62",
"51",
"50",
"53",
"55",
"53",
"52",
"53",
"42",
"49",
"45",
"56",
"58",
"50",
"56",
"59",
"55",
"61",
"51",
"66",
"41",
"53",
"40",
"58",
"58",
"49",
"55",
"64",
"55",
"59",
"50",
"56",
"68",
"50",
"52",
"48",
"55",
"50",
"52",
"51",
"59",
"34",
"43",
"63",
"55",
"71",
"46",
"48",
"59",
"59",
"55",
"59",
"61",
"48",
"64",
"51",
"50",
"62",
"59",
"54",
"52",
"52",
"53",
"50",
"50",
"58",
"53",
"55",
"50",
"43",
"61",
"62",
"45",
"58",
"52",
"41",
"61",
"55",
"51",
"50",
"59",
"37",
"61",
"59",
"52",
"45",
"60",
"39",
"56",
"60",
"65",
"51",
"43",
"64",
"53",
"51",
"61",
"55",
"51",
"49",
"81",
"66",
"91",
"85",
"90",
"85",
"93",
"84",
"97",
"90",
"73",
"60",
"68",
"52",
"43",
"54",
"41",
"46",
"51",
"46",
"51",
"45",
"52",
"59",
"61",
"42",
"49",
"48",
"52",
"42",
"37",
"42",
"60",
"43",
"51",
"41",
"66",
"55",
"56",
"60",
"48",
"53",
"51",
"64",
"48",
"49",
"50",
"42",
"56",
"46",
"51",
"51",
"59",
"38",
"50",
"52",
"52",
"47",
"41",
"46",
"43",
"46",
"60",
"52",
"50",
"43",
"52",
"42",
"49",
"40",
"46",
"55",
"36",
"42",
"51",
"41",
"37",
"36",
"42",
"46",
"36",
"41",
"43",
"40",
"48",
"47",
"28",
"43",
"62",
"40",
"36",
"37",
"45",
"40",
"51",
"45",
"46",
"37",
"60",
"42",
"43",
"42",
"48",
"36",
"42",
"36",
"47",
"41",
"46",
"37",
"41",
"30",
"62",
"39",
"51",
"42",
"41",
"27",
"49",
"30",
"40",
"26",
"43",
"40",
"43",
"34",
"30",
"35",
"33",
"40",
"35",
"47",
"32",
"43",
"39",
"29",
"53",
"37",
"26",
"60",
"46",
"34",
"35",
"36",
"40",
"35",
"46",
"30",
"50",
"41",
"46",
"47",
"37",
"51",
"26",
"42",
"46",
"36",
"43",
"41",
"38",
"46",
"50",
"34",
"33",
"38",
"28",
"37",
"29",
"26",
"36",
"45",
"36",
"47",
"48",
"32",
"39",
"33",
"35",
"42",
"43",
"35",
"39",
"40",
"39",
"37",
"36",
"45",
"36",
"36",
"46",
"24",
"42",
"37",
"27",
"33",
"30",
"30",
"34",
"33",
"41",
"47",
"47",
"41",
"37",
"33",
"36",
"37",
"26",
"22",
"27",
"32",
"37",
"33",
"25",
"43",
"33",
"36",
"33",
"26",
"32",
"24",
"41",
"37",
"39",
"35",
"42",
"39",
"37",
"28",
"30",
"34",
"36",
"35",
"35",
"25",
"26",
"32",
"26",
"22",
"30",
"37",
"47",
"35",
"41",
"43",
"39",
"39",
"24",
"51",
"33",
"39",
"43",
"32",
"40",
"35",
"33",
"34",
"32",
"38",
"46",
"41",
"43",
"43",
"39",
"33",
"41",
"34",
"32",
"32",
"37",
"46",
"36",
"36",
"37",
"48",
"35",
"42",
"40",
"41",
"56",
"47",
"40",
"51",
"39",
"50",
"53",
"45",
"47",
"52",
"41",
"40",
"55",
"66",
"52",
"48",
"60",
"58",
"67",
"63",
"90",
"64",
"86",
"89",
"89",
"83",
"86",
"127",
"130",
"123",
"151",
"153",
"162",
"163",
"175",
"173",
"180",
"217",
"202",
"193",
"248",
"229",
"230",
"224",
"252",
"260",
"263",
"246",
"246",
"204",
"229",
"184",
"191",
"183",
"209",
"214",
"166",
"144",
"140",
"131",
"121",
"111",
"136",
"88",
"89",
"85",
"71",
"91",
"66",
"55",
"72",
"63",
"54",
"60",
"52",
"53",
"59",
"66",
"71",
"66",
"77",
"72",
"78",
"87",
"111",
"105",
"108",
"121",
"130",
"123",
"119",
"115",
"108",
"123",
"114",
"101",
"100",
"74",
"62",
"71",
"42",
"30",
"46",
"36",
"33",
"37",
"42",
"24",
"36",
"27",
"16921",
"Channel_info_start",
"Channel : Mg",
"Points : 0",
"Range : 0.000000 - 0.000000",
"Step : 0.010000",
"Channel_info_end",
"Channel_info_start",
"Channel : Al",
"Points : 0",
"Range : 0.000000 - 0.000000",
"Step : 0.010000",
"Channel_info_end",
"Channel_info_start",
"Channel : Si",
"Points : 0",
"Range : 0.000000 - 0.000000",
"Step : 0.010000",
"Channel_info_end",
"Channel_info_start",
"Channel : P ",
"Points : 0",
"Range : 0.000000 - 0.000000",
"Step : 0.010000",
"Channel_info_end",
"Channel_info_start",
"Channel : S ",
"Points : 0",
"Range : 0.000000 - 0.000000",
"Step : 0.010000",
"Channel_info_end",
"Channel_info_start",
"Channel : Cl",
"Points : 0",
"Range : 0.000000 - 0.000000",
"Step : 0.010000",
"Channel_info_end",
"Channel_info_start",
"Channel : K ",
"Points : 0",
"Range : 0.000000 - 0.000000",
"Step : 0.010000",
"Channel_info_end",
"Channel_info_start",
"Channel : Ca",
"Points : 0",
"Range : 0.000000 - 0.000000",
"Step : 0.010000",
"Channel_info_end",
"Channel_info_start",
"Channel : Ti",
"Points : 0",
"Range : 0.000000 - 0.000000",
"Step : 0.010000",
"Channel_info_end",
"Channel_info_start",
"Channel : V ",
"Points : 0",
"Range : 0.000000 - 0.000000",
"Step : 0.010000",
"Channel_info_end",
"Channel_info_start",
"Channel : Cr",
"Points : 0",
"Range : 0.000000 - 0.000000",
"Step : 0.010000",
"Channel_info_end",
"Channel_info_start",
"Channel : Mn",
"Points : 0",
"Range : 0.000000 - 0.000000",
"Step : 0.010000",
"Channel_info_end",
"Channel_info_start",
"Channel : Fe",
"Points : 0",
"Range : 0.000000 - 0.000000",
"Step : 0.010000",
"Channel_info_end",
"Channel_info_start",
"Channel : Cu",
"Points : 0",
"Range : 0.000000 - 0.000000",
"Step : 0.010000",
"Channel_info_end",
"Channel_info_start",
"Channel : Zn",
"Points : 0",
"Range : 0.000000 - 0.000000",
"Step : 0.010000",
"Channel_info_end",
"Channel_info_start",
"Channel : Sr",
"Points : 0",
"Range : 0.000000 - 0.000000",
"Step : 0.010000",
"Channel_info_end",
"Channel_info_start",
"Channel : Pb",
"Points : 0",
"Range : 0.000000 - 0.000000",
"Step : 0.010000",
"Channel_info_end",
"",
"Qualitative Result",
"--------------------------------------------------------------------------------",
"Element :  P , Ca, Fe, Rh",
"",
"Peak List",
"--------------------------------------------------------------------------------",
"Channel               Line        keV     Net Int.(cps/uA)",
"--------------------------------------------------------------------------------",
"Na                    P Ka         2.00     0.022",
"                      CaKa         3.68     0.311",
"                      CaKb         4.00     0.044",
"                      FeKaESC      4.64     0.064",
"                      FeKa         6.40    18.246",
"                      FeKb         7.04     2.392",
"                      RhKaC       19.16     0.127",
"                      ----        19.39     0.085",
"                      RhKa        20.05     0.065",
"--------------------------------------------------------------------------------",
"",
"Quantitative Result",
"--------------------------------------------------------------------------------",
"Analyte               Result             Std.Dev. Proc.-Calc. Line Intensity(cps/uA)",
"--------------------------------------------------------------------------------",
"====[No. 1 Layer]====< Layer1               >===============================",
"Layer1                   0.000 ug/cm2    -------- Flux       -------- --------",