File: inputs/edxCalibration/edx_raw/2010/junho/GaAs 15758.20100525221803.csv
"Sample    : GaAs 15758",
"Operator  : luisf",
"Comment  : cubatao-g-policarbonato",
"Group     : kerr2007ag180cal_lt",
"Date       : 2010-05-25 22:13:59",
"",
"Mesurement Condition",
"------------------------------------------------------------------------------------",
"Instrument : 700HS2   Atmosphere : Vac.   Collimator : 10(mm)   Spin : No",
"------------------------------------------------------------------------------------",
"Analyte               TG kV   uA      FI Acq.(keV)  Anal.(keV)  Time(sec)     DT(%)",
"------------------------------------------------------------------------------------",
"Na                    Rh 50  152-Auto Al  0 - 20    0.8 - 1.2   Live -  179   15",
"",
"<Profile>",
"Channel_info_start",
"Channel : Na",
"Points : 2048",
"Range : 0.000000 - 20.48",
"Step : 0.010000",
"Channel_info_end",
"0",
"0",
"0",
"0",
"0",
"0",
"0",
"0",
"0",
"0",
"0",
"0",
"0",
"0",
"1",
"10",
"30",
"18",
"22",
"20",
"18",
"21",
"22",
"17",
"21",
"17",
"12",
"17",
"22",
"18",
"15",
"10",
"21",
"15",
"21",
"10",
"14",
"10",
"14",
"13",
"12",
"13",
"15",
"10",
"16",
"15",
"20",
"20",
"22",
"32",
"23",
"38",
"64",
"88",
"140",
"176",
"188",
"169",
"129",
"114",
"154",
"232",
"410",
"646",
"754",
"882",
"743",
"679",
"487",
"275",
"186",
"100",
"73",
"42",
"35",
"32",
"25",
"18",
"18",
"15",
"12",
"17",
"15",
"17",
"9",
"10",
"21",
"13",
"11",
"13",
"13",
"7",
"9",
"13",
"16",
"16",
"13",
"24",
"25",
"28",
"35",
"27",
"23",
"23",
"25",
"20",
"18",
"15",
"8",
"9",
"9",
"8",
"9",
"12",
"10",
"5",
"13",
"4",
"8",
"10",
"3",
"9",
"10",
"9",
"5",
"4",
"7",
"8",
"14",
"9",
"14",
"13",
"13",
"8",
"12",
"21",
"12",
"11",
"7",
"9",
"8",
"10",
"14",
"14",
"14",
"13",
"9",
"14",
"16",
"8",
"14",
"15",
"9",
"12",
"5",
"5",
"14",
"13",
"12",
"13",
"8",
"4",
"8",
"12",
"8",
"14",
"11",
"8",
"11",
"10",
"18",
"7",
"14",
"12",
"8",
"13",
"16",
"36",
"47",
"57",
"123",
"183",
"254",
"319",
"344",
"381",
"278",
"228",
"162",
"103",
"69",
"47",
"27",
"34",
"32",
"29",
"35",
"39",
"40",
"72",
"55",
"62",
"60",
"48",
"51",
"25",
"23",
"23",
"26",
"15",
"22",
"27",
"18",
"13",
"22",
"15",
"24",
"26",
"32",
"28",
"35",
"32",
"38",
"25",
"42",
"35",
"40",
"36",
"38",
"27",
"34",
"34",
"27",
"41",
"33",
"30",
"36",
"32",
"46",
"24",
"23",
"38",
"28",
"28",
"30",
"39",
"18",
"26",
"28",
"22",
"24",
"30",
"30",
"29",
"28",
"32",
"18",
"23",
"30",
"26",
"27",
"15",
"15",
"28",
"23",
"32",
"25",
"40",
"30",
"30",
"25",
"39",
"43",
"22",
"33",
"35",
"36",
"39",
"39",
"25",
"45",
"40",
"43",
"41",
"26",
"33",
"39",
"36",
"27",
"40",
"33",
"43",
"41",
"41",
"50",
"39",
"39",
"50",
"50",
"53",
"45",
"42",
"54",
"58",
"47",
"49",
"40",
"48",
"50",
"48",
"62",
"61",
"50",
"78",
"66",
"57",
"65",
"72",
"57",
"77",
"55",
"77",
"97",
"73",
"67",
"59",
"76",
"71",
"67",
"55",
"49",
"64",
"60",
"57",
"61",
"53",
"72",
"67",
"59",
"67",
"70",
"64",
"67",
"67",
"67",
"48",
"66",
"55",
"61",
"74",
"69",
"77",
"73",
"74",
"66",
"63",
"69",
"72",
"78",
"64",
"60",
"50",
"54",
"77",
"76",
"67",
"71",
"69",
"72",
"71",
"72",
"74",
"85",
"79",
"80",
"85",
"82",
"75",
"86",
"73",
"61",
"66",
"78",
"71",
"54",
"87",
"55",
"67",
"80",
"55",
"60",
"78",
"73",
"72",
"76",
"98",
"96",
"101",
"86",
"80",
"83",
"105",
"103",
"89",
"88",
"79",
"82",
"70",
"84",
"70",
"76",
"47",
"83",
"61",
"63",
"47",
"74",
"79",
"65",
"74",
"74",
"60",
"64",
"64",
"65",
"91",
"98",
"95",
"103",
"107",
"123",
"111",
"124",
"124",
"105",
"116",
"113",
"102",
"124",
"110",
"103",
"121",
"100",
"83",
"99",
"84",
"80",
"96",
"109",
"100",
"160",
"242",
"346",
"559",
"922",
"1355",
"1978",
"2689",
"3624",
"4267",
"4990",
"5327",
"5588",
"5116",
"4720",
"3917",
"3098",
"2266",
"1799",
"1099",
"743",
"459",
"272",
"189",
"134",
"115",
"87",
"79",
"99",
"104",
"84",
"78",
"75",
"82",
"90",
"64",
"71",
"72",
"87",
"80",
"94",
"82",
"77",
"75",
"104",
"90",
"95",
"83",
"97",
"72",
"122",
"122",
"148",
"167",
"194",
"226",
"326",
"384",
"532",
"634",
"745",
"804",
"973",
"1048",
"1253",
"1433",
"1934",
"2601",
"3803",
"5471",
"7655",
"10235",
"13316",
"15771",
"18417",
"19522",
"20758",
"19738",
"18613",
"16026",
"13779",
"10554",
"8229",
"5681",
"3929",
"2421",
"1539",
"986",
"532",
"303",
"194",
"149",
"110",
"95",
"89",
"94",
"74",
"73",
"82",
"78",
"76",
"80",
"89",
"67",
"94",
"82",
"86",
"88",
"87",
"83",
"121",
"98",
"94",
"84",
"90",
"92",
"107",
"98",
"124",
"96",
"122",
"113",
"145",
"150",
"212",
"275",
"378",
"569",
"762",
"1058",
"1448",
"1787",
"2149",
"2489",
"2730",
"2889",
"2892",
"2746",
"2625",
"2199",
"1948",
"1569",
"1282",
"911",
"660",
"519",
"357",
"276",
"208",
"116",
"89",
"91",
"89",
"65",
"52",
"61",
"57",
"61",
"63",
"51",
"53",
"48",
"50",
"57",
"61",
"50",
"51",
"43",
"39",
"42",
"50",
"63",
"48",
"33",
"48",
"65",
"54",
"54",
"46",
"55",
"45",
"51",
"47",
"49",
"43",
"55",
"49",
"41",
"46",
"61",
"59",
"40",
"54",
"47",
"51",
"43",
"47",
"69",
"42",
"42",
"53",
"42",
"59",
"38",
"30",
"55",
"57",
"64",
"50",
"66",
"35",
"46",
"54",
"43",
"41",
"48",
"43",
"49",
"57",
"36",
"35",
"42",
"49",
"51",
"45",
"53",
"50",
"43",
"43",
"45",
"49",
"51",
"50",
"48",
"51",
"50",
"45",
"40",
"43",
"54",
"55",
"46",
"45",
"39",
"39",
"47",
"45",
"37",
"43",
"50",
"54",
"50",
"37",
"39",
"46",
"37",
"38",
"41",
"50",
"37",
"42",
"42",
"47",
"48",
"48",
"39",
"52",
"43",
"49",
"35",
"38",
"24",
"49",
"34",
"45",
"46",
"38",
"41",
"50",
"46",
"48",
"42",
"40",
"40",
"45",
"39",
"41",
"36",
"42",
"39",
"33",
"38",
"43",
"34",
"35",
"40",
"46",
"37",
"38",
"38",
"49",
"37",
"40",
"45",
"43",
"48",
"43",
"37",
"42",
"45",
"42",
"35",
"32",
"37",
"34",
"38",
"34",
"35",
"38",
"37",
"33",
"29",
"43",
"34",
"42",
"35",
"39",
"32",
"35",
"38",
"28",
"38",
"42",
"33",
"47",
"39",
"50",
"30",
"48",
"40",
"43",
"32",
"41",
"34",
"51",
"29",
"40",
"39",
"38",
"43",
"29",
"23",
"30",
"36",
"38",
"38",
"32",
"38",
"37",
"34",
"40",
"34",
"45",
"29",
"40",
"48",
"29",
"30",
"42",
"43",
"41",
"29",
"47",
"33",
"38",
"34",
"43",
"36",
"33",
"38",
"49",
"34",
"47",
"30",
"33",
"43",
"37",
"40",
"45",
"27",
"41",
"41",
"24",
"30",
"47",
"29",
"40",
"35",
"36",
"33",
"32",
"41",
"40",
"34",
"41",
"32",
"32",
"38",
"27",
"32",
"35",
"30",
"32",
"37",
"42",
"39",
"36",
"25",
"47",
"32",
"33",
"23",
"30",
"28",
"40",
"39",
"36",
"37",
"22",
"26",
"40",
"42",
"36",
"25",
"27",
"43",
"36",
"39",
"43",
"27",
"47",
"39",
"37",
"34",
"22",
"30",
"38",
"42",
"34",
"39",
"32",
"41",
"45",
"34",
"42",
"34",
"37",
"34",
"32",
"45",
"38",
"36",
"32",
"43",
"48",
"24",
"40",
"48",
"40",
"43",
"38",
"50",
"42",
"48",
"45",
"64",
"55",
"50",
"62",
"65",
"58",
"54",
"60",
"63",
"79",
"77",
"80",
"84",
"84",
"82",
"97",
"91",
"126",
"120",
"139",
"123",
"169",
"154",
"175",
"197",
"179",
"173",
"222",
"204",
"217",
"221",
"246",
"238",
"260",
"261",
"248",
"247",
"224",
"201",
"244",
"201",
"224",
"179",
"191",
"195",
"150",
"141",
"153",
"137",
"133",
"112",
"97",
"107",
"72",
"75",
"83",
"84",
"91",
"69",
"60",
"66",
"70",
"80",
"79",
"46",
"86",
"62",
"77",
"63",
"78",
"82",
"74",
"85",
"110",
"115",
"107",
"112",
"115",
"121",
"116",
"127",
"124",
"110",
"97",
"103",
"97",
"82",
"75",
"69",
"58",
"49",
"63",
"48",
"39",
"34",
"46",
"26",
"38",
"39",
"17975",
"Channel_info_start",
"Channel : Mg",
"Points : 0",
"Range : 0.000000 - 0.000000",
"Step : 0.010000",
"Channel_info_end",
"Channel_info_start",
"Channel : Al",
"Points : 0",
"Range : 0.000000 - 0.000000",
"Step : 0.010000",
"Channel_info_end",
"Channel_info_start",
"Channel : Si",
"Points : 0",
"Range : 0.000000 - 0.000000",
"Step : 0.010000",
"Channel_info_end",
"Channel_info_start",
"Channel : P ",
"Points : 0",
"Range : 0.000000 - 0.000000",
"Step : 0.010000",
"Channel_info_end",
"Channel_info_start",
"Channel : S ",
"Points : 0",
"Range : 0.000000 - 0.000000",
"Step : 0.010000",
"Channel_info_end",
"Channel_info_start",
"Channel : Cl",
"Points : 0",
"Range : 0.000000 - 0.000000",
"Step : 0.010000",
"Channel_info_end",
"Channel_info_start",
"Channel : K ",
"Points : 0",
"Range : 0.000000 - 0.000000",
"Step : 0.010000",
"Channel_info_end",
"Channel_info_start",
"Channel : Ca",
"Points : 0",
"Range : 0.000000 - 0.000000",
"Step : 0.010000",
"Channel_info_end",
"Channel_info_start",
"Channel : Ti",
"Points : 0",
"Range : 0.000000 - 0.000000",
"Step : 0.010000",
"Channel_info_end",
"Channel_info_start",
"Channel : V ",
"Points : 0",
"Range : 0.000000 - 0.000000",
"Step : 0.010000",
"Channel_info_end",
"Channel_info_start",
"Channel : Cr",
"Points : 0",
"Range : 0.000000 - 0.000000",
"Step : 0.010000",
"Channel_info_end",
"Channel_info_start",
"Channel : Mn",
"Points : 0",
"Range : 0.000000 - 0.000000",
"Step : 0.010000",
"Channel_info_end",
"Channel_info_start",
"Channel : Fe",
"Points : 0",
"Range : 0.000000 - 0.000000",
"Step : 0.010000",
"Channel_info_end",
"Channel_info_start",
"Channel : Cu",
"Points : 0",
"Range : 0.000000 - 0.000000",
"Step : 0.010000",
"Channel_info_end",
"Channel_info_start",
"Channel : Zn",
"Points : 0",
"Range : 0.000000 - 0.000000",
"Step : 0.010000",
"Channel_info_end",
"Channel_info_start",
"Channel : Sr",
"Points : 0",
"Range : 0.000000 - 0.000000",
"Step : 0.010000",
"Channel_info_end",
"Channel_info_start",
"Channel : Pb",
"Points : 0",
"Range : 0.000000 - 0.000000",
"Step : 0.010000",
"Channel_info_end",
"",
"Qualitative Result",
"--------------------------------------------------------------------------------",
"Element :  Ga, As, P , Ca, Ru",
"",
"Peak List",
"--------------------------------------------------------------------------------",
"Channel               Line        keV     Net Int.(cps/uA)",
"--------------------------------------------------------------------------------",
"Na                    GaLa         1.11     0.070",
"                      AsLa         1.30     0.364",
"                      P Ka         2.00     0.011",
"                      CaKa         3.69     0.168",
"                      CaKb         4.02     0.022",
"                      GaKa         9.24     3.640",
"                      AsKa        10.52    14.112",
"                      AsKb        11.72     2.036",
"                      RuKa        19.16     0.137",
"                      ----        19.41     0.060",
"                      ----        19.97     0.054",
"--------------------------------------------------------------------------------",
"",
"Quantitative Result",
"--------------------------------------------------------------------------------",
"Analyte               Result             Std.Dev. Proc.-Calc. Line Intensity(cps/uA)",
"--------------------------------------------------------------------------------",
"====[No. 1 Layer]====< Layer1               >===============================",
"Layer1                   0.000 ug/cm2    -------- Flux       -------- --------",