File: inputs/edxCalibration/edx_raw/2010/junho/GaAs 31503.20100525222207.csv
"Sample    : GaAs 31503",
"Operator  : luisf",
"Comment  : cubatao-g-policarbonato",
"Group     : kerr2007ag180cal_lt",
"Date       : 2010-05-25 22:18:02",
"",
"Mesurement Condition",
"------------------------------------------------------------------------------------",
"Instrument : 700HS2   Atmosphere : Vac.   Collimator : 10(mm)   Spin : No",
"------------------------------------------------------------------------------------",
"Analyte               TG kV   uA      FI Acq.(keV)  Anal.(keV)  Time(sec)     DT(%)",
"------------------------------------------------------------------------------------",
"Na                    Rh 50  152-Auto Al  0 - 20    0.8 - 1.2   Live -  179   15",
"",
"<Profile>",
"Channel_info_start",
"Channel : Na",
"Points : 2048",
"Range : 0.000000 - 20.48",
"Step : 0.010000",
"Channel_info_end",
"0",
"0",
"0",
"0",
"0",
"0",
"0",
"0",
"0",
"0",
"0",
"0",
"0",
"0",
"1",
"9",
"22",
"29",
"17",
"20",
"21",
"15",
"20",
"15",
"11",
"20",
"28",
"21",
"15",
"11",
"10",
"20",
"23",
"14",
"9",
"18",
"13",
"17",
"7",
"14",
"9",
"14",
"14",
"11",
"14",
"17",
"14",
"25",
"23",
"20",
"36",
"34",
"59",
"94",
"141",
"174",
"195",
"175",
"170",
"145",
"155",
"261",
"384",
"605",
"736",
"902",
"821",
"570",
"458",
"284",
"187",
"117",
"76",
"37",
"31",
"24",
"13",
"21",
"15",
"21",
"13",
"11",
"18",
"13",
"24",
"15",
"12",
"12",
"12",
"17",
"13",
"11",
"15",
"13",
"21",
"17",
"22",
"36",
"53",
"38",
"46",
"59",
"49",
"21",
"23",
"13",
"14",
"14",
"8",
"18",
"12",
"10",
"8",
"8",
"5",
"14",
"9",
"5",
"3",
"13",
"5",
"10",
"7",
"12",
"7",
"11",
"10",
"9",
"14",
"10",
"9",
"11",
"9",
"4",
"13",
"15",
"10",
"14",
"7",
"8",
"11",
"16",
"12",
"9",
"14",
"9",
"13",
"9",
"7",
"8",
"7",
"11",
"13",
"5",
"4",
"11",
"10",
"8",
"12",
"3",
"7",
"11",
"14",
"8",
"14",
"12",
"9",
"11",
"14",
"15",
"8",
"20",
"13",
"18",
"11",
"13",
"20",
"34",
"56",
"74",
"138",
"258",
"439",
"486",
"587",
"527",
"492",
"396",
"265",
"153",
"85",
"48",
"50",
"42",
"35",
"39",
"47",
"45",
"67",
"74",
"81",
"90",
"72",
"56",
"60",
"41",
"27",
"23",
"22",
"18",
"13",
"27",
"17",
"17",
"16",
"23",
"25",
"30",
"30",
"24",
"34",
"29",
"28",
"35",
"35",
"23",
"34",
"36",
"34",
"36",
"39",
"43",
"42",
"31",
"41",
"39",
"29",
"28",
"28",
"25",
"30",
"34",
"30",
"25",
"20",
"14",
"26",
"27",
"28",
"21",
"28",
"22",
"18",
"34",
"25",
"23",
"33",
"26",
"18",
"21",
"35",
"34",
"29",
"27",
"22",
"17",
"29",
"31",
"35",
"34",
"24",
"35",
"36",
"37",
"36",
"25",
"33",
"35",
"36",
"25",
"34",
"37",
"39",
"40",
"27",
"40",
"39",
"37",
"29",
"36",
"42",
"40",
"48",
"45",
"42",
"36",
"50",
"42",
"43",
"42",
"41",
"49",
"47",
"41",
"45",
"39",
"53",
"52",
"51",
"51",
"46",
"66",
"67",
"56",
"71",
"64",
"55",
"68",
"67",
"77",
"65",
"74",
"54",
"58",
"64",
"63",
"62",
"73",
"64",
"48",
"66",
"59",
"69",
"55",
"68",
"54",
"52",
"60",
"59",
"49",
"67",
"64",
"69",
"49",
"61",
"52",
"67",
"46",
"66",
"55",
"62",
"72",
"58",
"75",
"55",
"60",
"66",
"63",
"66",
"53",
"62",
"58",
"79",
"60",
"75",
"72",
"58",
"65",
"73",
"69",
"86",
"76",
"72",
"85",
"81",
"83",
"72",
"65",
"83",
"80",
"78",
"66",
"61",
"75",
"66",
"58",
"73",
"58",
"72",
"47",
"60",
"71",
"75",
"75",
"58",
"63",
"79",
"85",
"87",
"87",
"83",
"94",
"97",
"90",
"85",
"79",
"87",
"76",
"79",
"72",
"71",
"62",
"69",
"63",
"71",
"49",
"48",
"56",
"68",
"63",
"76",
"54",
"55",
"73",
"71",
"85",
"74",
"77",
"93",
"88",
"85",
"105",
"111",
"119",
"116",
"102",
"116",
"130",
"93",
"97",
"101",
"105",
"91",
"91",
"93",
"98",
"84",
"97",
"114",
"105",
"143",
"225",
"426",
"673",
"1039",
"1518",
"2407",
"3175",
"4222",
"5067",
"6013",
"6238",
"6498",
"5985",
"5633",
"4685",
"3704",
"2707",
"1960",
"1327",
"804",
"506",
"315",
"168",
"138",
"97",
"85",
"72",
"73",
"81",
"79",
"66",
"73",
"62",
"73",
"61",
"63",
"71",
"77",
"80",
"90",
"85",
"85",
"92",
"69",
"93",
"89",
"92",
"103",
"102",
"105",
"107",
"143",
"175",
"199",
"270",
"331",
"440",
"598",
"656",
"842",
"928",
"1079",
"1102",
"1335",
"1521",
"1960",
"2593",
"3663",
"5208",
"7244",
"9336",
"12325",
"14723",
"17145",
"17991",
"19135",
"18236",
"17415",
"14800",
"12898",
"9713",
"7552",
"5207",
"3558",
"2230",
"1353",
"889",
"474",
"307",
"170",
"128",
"102",
"67",
"90",
"75",
"71",
"73",
"80",
"67",
"76",
"76",
"69",
"64",
"71",
"91",
"75",
"67",
"88",
"62",
"80",
"81",
"83",
"84",
"87",
"80",
"105",
"96",
"86",
"102",
"97",
"124",
"135",
"167",
"198",
"250",
"360",
"496",
"723",
"911",
"1276",
"1678",
"2049",
"2252",
"2461",
"2704",
"2726",
"2611",
"2474",
"2104",
"1808",
"1427",
"1214",
"794",
"657",
"434",
"334",
"235",
"156",
"118",
"124",
"75",
"68",
"65",
"67",
"60",
"60",
"39",
"53",
"46",
"55",
"56",
"50",
"41",
"52",
"40",
"46",
"39",
"38",
"63",
"47",
"54",
"43",
"40",
"40",
"48",
"52",
"49",
"45",
"39",
"58",
"45",
"66",
"46",
"29",
"40",
"46",
"48",
"47",
"47",
"42",
"50",
"46",
"49",
"52",
"43",
"55",
"45",
"49",
"40",
"42",
"41",
"52",
"51",
"40",
"43",
"49",
"42",
"46",
"52",
"46",
"48",
"43",
"43",
"60",
"33",
"28",
"55",
"34",
"41",
"38",
"38",
"46",
"47",
"43",
"47",
"42",
"41",
"37",
"37",
"50",
"26",
"42",
"46",
"36",
"38",
"40",
"34",
"48",
"36",
"54",
"41",
"43",
"45",
"47",
"41",
"34",
"51",
"46",
"38",
"41",
"43",
"37",
"49",
"38",
"36",
"56",
"40",
"36",
"51",
"48",
"38",
"47",
"28",
"39",
"46",
"45",
"36",
"36",
"38",
"40",
"46",
"45",
"50",
"52",
"36",
"38",
"37",
"40",
"47",
"40",
"48",
"38",
"47",
"38",
"34",
"50",
"37",
"35",
"37",
"48",
"35",
"31",
"38",
"41",
"47",
"37",
"37",
"36",
"35",
"28",
"38",
"42",
"34",
"30",
"36",
"37",
"33",
"31",
"35",
"34",
"25",
"39",
"38",
"52",
"43",
"37",
"38",
"37",
"36",
"41",
"43",
"36",
"42",
"37",
"41",
"36",
"39",
"53",
"28",
"20",
"37",
"29",
"28",
"42",
"41",
"40",
"30",
"36",
"37",
"36",
"41",
"39",
"35",
"41",
"37",
"24",
"36",
"29",
"40",
"40",
"50",
"29",
"35",
"36",
"26",
"36",
"33",
"27",
"33",
"34",
"29",
"36",
"33",
"42",
"27",
"36",
"18",
"31",
"29",
"40",
"33",
"34",
"34",
"33",
"33",
"30",
"29",
"36",
"33",
"38",
"38",
"29",
"24",
"37",
"29",
"40",
"25",
"25",
"40",
"28",
"30",
"34",
"30",
"24",
"27",
"27",
"24",
"39",
"29",
"34",
"28",
"41",
"23",
"41",
"31",
"33",
"26",
"30",
"24",
"34",
"38",
"34",
"49",
"35",
"24",
"35",
"21",
"31",
"29",
"30",
"39",
"26",
"42",
"34",
"33",
"29",
"36",
"38",
"36",
"37",
"31",
"28",
"31",
"46",
"27",
"42",
"35",
"43",
"27",
"28",
"31",
"28",
"28",
"46",
"33",
"45",
"36",
"28",
"42",
"26",
"30",
"29",
"43",
"33",
"35",
"23",
"29",
"36",
"30",
"52",
"33",
"36",
"42",
"41",
"36",
"39",
"31",
"50",
"41",
"47",
"41",
"48",
"43",
"50",
"46",
"49",
"38",
"49",
"55",
"76",
"52",
"53",
"64",
"65",
"53",
"63",
"64",
"86",
"79",
"99",
"74",
"113",
"101",
"127",
"127",
"141",
"145",
"151",
"161",
"151",
"166",
"191",
"207",
"195",
"180",
"204",
"216",
"215",
"230",
"274",
"211",
"194",
"198",
"221",
"180",
"180",
"205",
"187",
"166",
"137",
"137",
"142",
"130",
"121",
"110",
"118",
"99",
"77",
"92",
"91",
"74",
"86",
"58",
"74",
"68",
"58",
"55",
"49",
"62",
"56",
"77",
"64",
"84",
"69",
"88",
"77",
"110",
"99",
"101",
"106",
"116",
"107",
"136",
"111",
"114",
"96",
"105",
"86",
"78",
"74",
"74",
"63",
"64",
"48",
"41",
"40",
"38",
"39",
"29",
"28",
"25",
"35",
"26",
"16935",
"Channel_info_start",
"Channel : Mg",
"Points : 0",
"Range : 0.000000 - 0.000000",
"Step : 0.010000",
"Channel_info_end",
"Channel_info_start",
"Channel : Al",
"Points : 0",
"Range : 0.000000 - 0.000000",
"Step : 0.010000",
"Channel_info_end",
"Channel_info_start",
"Channel : Si",
"Points : 0",
"Range : 0.000000 - 0.000000",
"Step : 0.010000",
"Channel_info_end",
"Channel_info_start",
"Channel : P ",
"Points : 0",
"Range : 0.000000 - 0.000000",
"Step : 0.010000",
"Channel_info_end",
"Channel_info_start",
"Channel : S ",
"Points : 0",
"Range : 0.000000 - 0.000000",
"Step : 0.010000",
"Channel_info_end",
"Channel_info_start",
"Channel : Cl",
"Points : 0",
"Range : 0.000000 - 0.000000",
"Step : 0.010000",
"Channel_info_end",
"Channel_info_start",
"Channel : K ",
"Points : 0",
"Range : 0.000000 - 0.000000",
"Step : 0.010000",
"Channel_info_end",
"Channel_info_start",
"Channel : Ca",
"Points : 0",
"Range : 0.000000 - 0.000000",
"Step : 0.010000",
"Channel_info_end",
"Channel_info_start",
"Channel : Ti",
"Points : 0",
"Range : 0.000000 - 0.000000",
"Step : 0.010000",
"Channel_info_end",
"Channel_info_start",
"Channel : V ",
"Points : 0",
"Range : 0.000000 - 0.000000",
"Step : 0.010000",
"Channel_info_end",
"Channel_info_start",
"Channel : Cr",
"Points : 0",
"Range : 0.000000 - 0.000000",
"Step : 0.010000",
"Channel_info_end",
"Channel_info_start",
"Channel : Mn",
"Points : 0",
"Range : 0.000000 - 0.000000",
"Step : 0.010000",
"Channel_info_end",
"Channel_info_start",
"Channel : Fe",
"Points : 0",
"Range : 0.000000 - 0.000000",
"Step : 0.010000",
"Channel_info_end",
"Channel_info_start",
"Channel : Cu",
"Points : 0",
"Range : 0.000000 - 0.000000",
"Step : 0.010000",
"Channel_info_end",
"Channel_info_start",
"Channel : Zn",
"Points : 0",
"Range : 0.000000 - 0.000000",
"Step : 0.010000",
"Channel_info_end",
"Channel_info_start",
"Channel : Sr",
"Points : 0",
"Range : 0.000000 - 0.000000",
"Step : 0.010000",
"Channel_info_end",
"Channel_info_start",
"Channel : Pb",
"Points : 0",
"Range : 0.000000 - 0.000000",
"Step : 0.010000",
"Channel_info_end",
"",
"Qualitative Result",
"--------------------------------------------------------------------------------",
"Element :  Ga, As, Ir, Ca, Rh",
"",
"Peak List",
"--------------------------------------------------------------------------------",
"Channel               Line        keV     Net Int.(cps/uA)",
"--------------------------------------------------------------------------------",
"Na                    GaLa         1.11     0.066",
"                      AsLa         1.30     0.346",
"                      IrMa         2.01     0.018",
"                      CaKa         3.68     0.309",
"                      CaKb         4.02     0.037",
"                      GaKa         9.24     2.926",
"                      IrLa         9.24     1.336",
"                      GaKb        10.20     0.439",
"                      AsKa        10.52    13.125",
"                      AsKb        11.72     1.930",
"                      RhKaC       19.18     0.132",
"                      RhKa        20.05     0.065",
"--------------------------------------------------------------------------------",
"",
"Quantitative Result",
"--------------------------------------------------------------------------------",
"Analyte               Result             Std.Dev. Proc.-Calc. Line Intensity(cps/uA)",
"--------------------------------------------------------------------------------",
"====[No. 1 Layer]====< Layer1               >===============================",
"Layer1                   0.000 ug/cm2    -------- Flux       -------- --------",