File: inputs/edxCalibration/edx_raw/2010/junho/GaP 31502.20100525203214.csv
"Sample    : GaP 31502",
"Operator  : thiago",
"Comment  : cubatao-g-policarbonato",
"Group     : kerr2007ag180cal_lt",
"Date       : 2010-05-25 20:28:11",
"",
"Mesurement Condition",
"------------------------------------------------------------------------------------",
"Instrument : 700HS2   Atmosphere : Vac.   Collimator : 10(mm)   Spin : No",
"------------------------------------------------------------------------------------",
"Analyte               TG kV   uA      FI Acq.(keV)  Anal.(keV)  Time(sec)     DT(%)",
"------------------------------------------------------------------------------------",
"Na                    Rh 50  187-Auto Al  0 - 20    0.8 - 1.2   Live -  179   15",
"",
"<Profile>",
"Channel_info_start",
"Channel : Na",
"Points : 2048",
"Range : 0.000000 - 20.48",
"Step : 0.010000",
"Channel_info_end",
"0",
"0",
"0",
"0",
"0",
"0",
"0",
"0",
"0",
"0",
"0",
"0",
"0",
"0",
"0",
"10",
"36",
"26",
"17",
"22",
"20",
"19",
"26",
"19",
"11",
"14",
"14",
"16",
"15",
"25",
"22",
"12",
"7",
"19",
"21",
"13",
"19",
"10",
"12",
"12",
"14",
"19",
"16",
"12",
"20",
"23",
"35",
"37",
"46",
"58",
"70",
"100",
"173",
"306",
"469",
"588",
"586",
"520",
"468",
"265",
"183",
"93",
"77",
"44",
"21",
"17",
"19",
"12",
"13",
"21",
"17",
"5",
"26",
"16",
"15",
"10",
"19",
"15",
"12",
"12",
"17",
"24",
"19",
"27",
"36",
"22",
"37",
"28",
"41",
"34",
"39",
"37",
"42",
"46",
"74",
"81",
"138",
"242",
"399",
"587",
"701",
"695",
"584",
"376",
"234",
"164",
"87",
"58",
"51",
"45",
"29",
"25",
"12",
"15",
"10",
"17",
"13",
"12",
"13",
"14",
"4",
"8",
"9",
"5",
"9",
"9",
"7",
"4",
"9",
"10",
"17",
"14",
"9",
"13",
"14",
"9",
"9",
"16",
"11",
"10",
"19",
"20",
"13",
"11",
"13",
"19",
"10",
"12",
"11",
"11",
"15",
"13",
"15",
"11",
"12",
"7",
"23",
"12",
"12",
"11",
"13",
"8",
"17",
"14",
"14",
"19",
"12",
"10",
"14",
"8",
"13",
"12",
"13",
"15",
"16",
"26",
"28",
"36",
"70",
"91",
"219",
"292",
"467",
"603",
"753",
"696",
"620",
"443",
"296",
"198",
"123",
"63",
"50",
"42",
"40",
"49",
"54",
"53",
"73",
"97",
"94",
"107",
"102",
"78",
"72",
"34",
"26",
"32",
"26",
"22",
"24",
"13",
"15",
"26",
"24",
"22",
"36",
"33",
"23",
"29",
"22",
"34",
"32",
"38",
"45",
"33",
"39",
"41",
"45",
"37",
"37",
"40",
"28",
"34",
"48",
"41",
"39",
"35",
"27",
"27",
"33",
"25",
"26",
"35",
"41",
"38",
"48",
"35",
"36",
"33",
"25",
"33",
"32",
"27",
"27",
"27",
"25",
"41",
"29",
"33",
"36",
"34",
"28",
"26",
"46",
"44",
"33",
"25",
"38",
"29",
"40",
"34",
"27",
"27",
"28",
"35",
"37",
"52",
"45",
"41",
"34",
"38",
"39",
"51",
"44",
"58",
"45",
"48",
"44",
"49",
"46",
"58",
"53",
"53",
"42",
"42",
"46",
"54",
"48",
"61",
"56",
"50",
"51",
"41",
"62",
"41",
"71",
"56",
"58",
"63",
"69",
"68",
"66",
"71",
"68",
"74",
"64",
"57",
"100",
"77",
"82",
"76",
"86",
"60",
"68",
"85",
"74",
"66",
"86",
"74",
"87",
"73",
"63",
"76",
"80",
"58",
"72",
"85",
"84",
"76",
"75",
"63",
"71",
"78",
"85",
"70",
"82",
"69",
"54",
"68",
"81",
"75",
"84",
"91",
"68",
"87",
"80",
"62",
"72",
"68",
"80",
"77",
"66",
"70",
"85",
"77",
"81",
"70",
"111",
"97",
"127",
"131",
"130",
"121",
"129",
"139",
"109",
"130",
"97",
"96",
"89",
"93",
"100",
"80",
"80",
"74",
"89",
"87",
"89",
"69",
"91",
"68",
"75",
"86",
"93",
"90",
"96",
"108",
"106",
"110",
"144",
"127",
"131",
"152",
"112",
"105",
"105",
"97",
"88",
"85",
"65",
"93",
"110",
"86",
"98",
"83",
"99",
"84",
"82",
"87",
"91",
"81",
"110",
"90",
"90",
"87",
"97",
"100",
"127",
"103",
"158",
"129",
"160",
"113",
"146",
"126",
"115",
"120",
"133",
"102",
"127",
"113",
"147",
"142",
"175",
"139",
"160",
"186",
"233",
"297",
"528",
"867",
"1520",
"2658",
"4315",
"6608",
"10025",
"13620",
"18096",
"21387",
"25550",
"26748",
"27113",
"25548",
"23460",
"18881",
"15246",
"11021",
"8098",
"4957",
"3141",
"1743",
"1073",
"603",
"325",
"216",
"170",
"138",
"145",
"97",
"136",
"96",
"106",
"114",
"86",
"102",
"103",
"111",
"107",
"111",
"113",
"109",
"131",
"110",
"108",
"123",
"127",
"149",
"170",
"155",
"174",
"236",
"295",
"402",
"601",
"850",
"1212",
"1507",
"2118",
"2556",
"3127",
"3393",
"3912",
"3623",
"3508",
"3152",
"2759",
"2147",
"1816",
"1233",
"867",
"564",
"438",
"273",
"195",
"124",
"106",
"80",
"77",
"63",
"68",
"69",
"65",
"73",
"65",
"69",
"57",
"65",
"61",
"69",
"82",
"60",
"57",
"75",
"66",
"75",
"74",
"58",
"61",
"61",
"46",
"66",
"70",
"61",
"65",
"62",
"60",
"57",
"66",
"63",
"64",
"70",
"58",
"52",
"64",
"51",
"68",
"57",
"59",
"65",
"42",
"71",
"63",
"52",
"72",
"60",
"66",
"61",
"39",
"50",
"57",
"65",
"69",
"52",
"64",
"75",
"58",
"59",
"68",
"62",
"58",
"60",
"66",
"57",
"71",
"57",
"54",
"49",
"41",
"41",
"63",
"62",
"62",
"45",
"53",
"63",
"59",
"59",
"57",
"47",
"46",
"68",
"59",
"63",
"49",
"54",
"66",
"54",
"54",
"44",
"49",
"54",
"59",
"62",
"48",
"52",
"52",
"47",
"46",
"59",
"50",
"65",
"46",
"51",
"63",
"62",
"50",
"71",
"42",
"61",
"54",
"54",
"61",
"51",
"53",
"42",
"56",
"51",
"50",
"57",
"51",
"53",
"60",
"52",
"61",
"56",
"49",
"72",
"58",
"46",
"49",
"45",
"57",
"71",
"57",
"49",
"52",
"58",
"40",
"46",
"49",
"64",
"51",
"54",
"56",
"50",
"58",
"44",
"51",
"56",
"54",
"38",
"51",
"46",
"57",
"63",
"45",
"45",
"52",
"53",
"48",
"44",
"38",
"50",
"38",
"45",
"66",
"52",
"50",
"59",
"48",
"47",
"64",
"41",
"66",
"46",
"52",
"52",
"50",
"46",
"42",
"48",
"59",
"38",
"48",
"54",
"42",
"72",
"49",
"41",
"69",
"39",
"48",
"54",
"51",
"48",
"60",
"47",
"56",
"52",
"41",
"28",
"40",
"36",
"41",
"39",
"42",
"33",
"42",
"45",
"51",
"41",
"61",
"51",
"39",
"44",
"37",
"44",
"37",
"41",
"47",
"42",
"45",
"41",
"46",
"45",
"50",
"37",
"57",
"47",
"35",
"33",
"40",
"41",
"58",
"51",
"56",
"38",
"48",
"44",
"38",
"51",
"45",
"46",
"47",
"35",
"40",
"36",
"34",
"39",
"46",
"44",
"44",
"56",
"58",
"49",
"38",
"57",
"36",
"41",
"40",
"41",
"56",
"38",
"48",
"50",
"38",
"39",
"38",
"47",
"47",
"38",
"37",
"49",
"50",
"35",
"41",
"41",
"38",
"44",
"39",
"42",
"53",
"37",
"47",
"47",
"46",
"47",
"32",
"39",
"39",
"33",
"29",
"49",
"49",
"35",
"36",
"46",
"35",
"41",
"54",
"49",
"58",
"37",
"36",
"44",
"44",
"28",
"42",
"48",
"28",
"49",
"38",
"40",
"42",
"48",
"47",
"41",
"44",
"38",
"39",
"46",
"41",
"56",
"30",
"30",
"32",
"29",
"38",
"48",
"44",
"47",
"37",
"29",
"47",
"28",
"48",
"42",
"53",
"45",
"30",
"34",
"48",
"38",
"54",
"46",
"36",
"37",
"45",
"37",
"36",
"38",
"40",
"50",
"56",
"34",
"41",
"44",
"30",
"41",
"25",
"44",
"50",
"45",
"46",
"41",
"53",
"37",
"36",
"42",
"47",
"30",
"52",
"46",
"44",
"38",
"33",
"37",
"48",
"52",
"45",
"47",
"35",
"56",
"60",
"60",
"70",
"74",
"66",
"87",
"88",
"84",
"90",
"80",
"90",
"75",
"90",
"101",
"72",
"81",
"76",
"72",
"94",
"82",
"105",
"78",
"91",
"77",
"115",
"108",
"109",
"101",
"133",
"146",
"146",
"134",
"187",
"200",
"208",
"179",
"240",
"222",
"243",
"234",
"259",
"284",
"213",
"261",
"241",
"254",
"271",
"257",
"290",
"257",
"225",
"244",
"240",
"229",
"187",
"196",
"184",
"195",
"195",
"163",
"152",
"158",
"135",
"115",
"123",
"111",
"111",
"96",
"88",
"68",
"66",
"70",
"62",
"60",
"59",
"52",
"72",
"56",
"74",
"70",
"62",
"95",
"88",
"102",
"106",
"121",
"120",
"122",
"133",
"141",
"155",
"139",
"120",
"124",
"154",
"126",
"98",
"68",
"87",
"52",
"64",
"45",
"54",
"58",
"45",
"42",
"45",
"52",
"41",
"51",
"19272",
"Channel_info_start",
"Channel : Mg",
"Points : 0",
"Range : 0.000000 - 0.000000",
"Step : 0.010000",
"Channel_info_end",
"Channel_info_start",
"Channel : Al",
"Points : 0",
"Range : 0.000000 - 0.000000",
"Step : 0.010000",
"Channel_info_end",
"Channel_info_start",
"Channel : Si",
"Points : 0",
"Range : 0.000000 - 0.000000",
"Step : 0.010000",
"Channel_info_end",
"Channel_info_start",
"Channel : P ",
"Points : 0",
"Range : 0.000000 - 0.000000",
"Step : 0.010000",
"Channel_info_end",
"Channel_info_start",
"Channel : S ",
"Points : 0",
"Range : 0.000000 - 0.000000",
"Step : 0.010000",
"Channel_info_end",
"Channel_info_start",
"Channel : Cl",
"Points : 0",
"Range : 0.000000 - 0.000000",
"Step : 0.010000",
"Channel_info_end",
"Channel_info_start",
"Channel : K ",
"Points : 0",
"Range : 0.000000 - 0.000000",
"Step : 0.010000",
"Channel_info_end",
"Channel_info_start",
"Channel : Ca",
"Points : 0",
"Range : 0.000000 - 0.000000",
"Step : 0.010000",
"Channel_info_end",
"Channel_info_start",
"Channel : Ti",
"Points : 0",
"Range : 0.000000 - 0.000000",
"Step : 0.010000",
"Channel_info_end",
"Channel_info_start",
"Channel : V ",
"Points : 0",
"Range : 0.000000 - 0.000000",
"Step : 0.010000",
"Channel_info_end",
"Channel_info_start",
"Channel : Cr",
"Points : 0",
"Range : 0.000000 - 0.000000",
"Step : 0.010000",
"Channel_info_end",
"Channel_info_start",
"Channel : Mn",
"Points : 0",
"Range : 0.000000 - 0.000000",
"Step : 0.010000",
"Channel_info_end",
"Channel_info_start",
"Channel : Fe",
"Points : 0",
"Range : 0.000000 - 0.000000",
"Step : 0.010000",
"Channel_info_end",
"Channel_info_start",
"Channel : Cu",
"Points : 0",
"Range : 0.000000 - 0.000000",
"Step : 0.010000",
"Channel_info_end",
"Channel_info_start",
"Channel : Zn",
"Points : 0",
"Range : 0.000000 - 0.000000",
"Step : 0.010000",
"Channel_info_end",
"Channel_info_start",
"Channel : Sr",
"Points : 0",
"Range : 0.000000 - 0.000000",
"Step : 0.010000",
"Channel_info_end",
"Channel_info_start",
"Channel : Pb",
"Points : 0",
"Range : 0.000000 - 0.000000",
"Step : 0.010000",
"Channel_info_end",
"",
"Qualitative Result",
"--------------------------------------------------------------------------------",
"Element :  Ga, P , Ca, Ru",
"",
"Peak List",
"--------------------------------------------------------------------------------",
"Channel               Line        keV     Net Int.(cps/uA)",
"--------------------------------------------------------------------------------",
"Na                    GaLa         1.11     0.192",
"                      P Ka         2.01     0.259",
"                      CaKa         3.68     0.304",
"                      CaKb         4.02     0.040",
"                      GaKaESC      7.43     0.031",
"                      GaKa         9.24    14.575",
"                      GaKb        10.25     2.094",
"                      RuKa        19.20     0.134",
"                      Ga  SUM     19.44     0.072",
"--------------------------------------------------------------------------------",
"",
"Quantitative Result",
"--------------------------------------------------------------------------------",
"Analyte               Result             Std.Dev. Proc.-Calc. Line Intensity(cps/uA)",
"--------------------------------------------------------------------------------",
"====[No. 1 Layer]====< Layer1               >===============================",
"Layer1                   0.000 ug/cm2    -------- Flux       -------- --------",