File: inputs/edxCalibration/edx_raw/2010/junho/Ge 31504.20100525222610.csv
"Sample    : Ge 31504",
"Operator  : luisf",
"Comment  : cubatao-g-policarbonato",
"Group     : kerr2007ag180cal_lt",
"Date       : 2010-05-25 22:22:05",
"",
"Mesurement Condition",
"------------------------------------------------------------------------------------",
"Instrument : 700HS2   Atmosphere : Vac.   Collimator : 10(mm)   Spin : No",
"------------------------------------------------------------------------------------",
"Analyte               TG kV   uA      FI Acq.(keV)  Anal.(keV)  Time(sec)     DT(%)",
"------------------------------------------------------------------------------------",
"Na                    Rh 50  152-Auto Al  0 - 20    0.8 - 1.2   Live -  179   15",
"",
"<Profile>",
"Channel_info_start",
"Channel : Na",
"Points : 2048",
"Range : 0.000000 - 20.48",
"Step : 0.010000",
"Channel_info_end",
"0",
"0",
"0",
"0",
"0",
"0",
"0",
"0",
"0",
"0",
"0",
"0",
"0",
"0",
"0",
"13",
"27",
"25",
"25",
"22",
"13",
"12",
"24",
"17",
"16",
"16",
"18",
"11",
"20",
"11",
"14",
"9",
"12",
"18",
"14",
"9",
"13",
"11",
"10",
"9",
"10",
"13",
"21",
"11",
"13",
"13",
"18",
"15",
"15",
"29",
"45",
"35",
"61",
"55",
"61",
"89",
"169",
"303",
"556",
"724",
"794",
"743",
"685",
"484",
"301",
"182",
"128",
"71",
"41",
"27",
"22",
"24",
"22",
"11",
"17",
"15",
"10",
"18",
"7",
"13",
"10",
"11",
"9",
"7",
"8",
"13",
"12",
"20",
"13",
"14",
"14",
"17",
"11",
"16",
"14",
"23",
"27",
"25",
"43",
"43",
"38",
"60",
"28",
"38",
"22",
"11",
"9",
"5",
"9",
"5",
"13",
"11",
"9",
"7",
"14",
"12",
"4",
"10",
"8",
"4",
"7",
"3",
"14",
"12",
"7",
"9",
"5",
"2",
"4",
"5",
"7",
"4",
"14",
"9",
"8",
"11",
"8",
"4",
"10",
"9",
"14",
"15",
"9",
"12",
"12",
"10",
"9",
"11",
"11",
"14",
"7",
"5",
"13",
"12",
"5",
"7",
"8",
"7",
"9",
"15",
"4",
"15",
"12",
"9",
"8",
"9",
"13",
"7",
"13",
"7",
"9",
"16",
"10",
"16",
"8",
"17",
"26",
"24",
"62",
"93",
"155",
"282",
"403",
"504",
"567",
"548",
"514",
"378",
"243",
"121",
"107",
"52",
"51",
"36",
"38",
"30",
"35",
"53",
"72",
"89",
"93",
"92",
"86",
"78",
"52",
"41",
"34",
"26",
"25",
"22",
"21",
"27",
"22",
"16",
"28",
"22",
"26",
"27",
"31",
"24",
"28",
"28",
"33",
"39",
"35",
"47",
"38",
"35",
"35",
"34",
"33",
"40",
"50",
"38",
"45",
"36",
"55",
"35",
"28",
"29",
"24",
"29",
"24",
"14",
"29",
"34",
"24",
"25",
"29",
"21",
"23",
"23",
"35",
"24",
"29",
"25",
"22",
"25",
"27",
"24",
"24",
"18",
"34",
"18",
"30",
"23",
"33",
"35",
"27",
"30",
"37",
"40",
"28",
"24",
"33",
"30",
"24",
"23",
"31",
"39",
"30",
"25",
"39",
"35",
"33",
"48",
"38",
"29",
"34",
"34",
"30",
"27",
"41",
"46",
"53",
"42",
"35",
"41",
"41",
"56",
"42",
"50",
"50",
"52",
"43",
"53",
"48",
"47",
"66",
"47",
"63",
"55",
"65",
"50",
"63",
"48",
"56",
"68",
"72",
"51",
"83",
"67",
"58",
"55",
"64",
"69",
"60",
"51",
"67",
"58",
"54",
"52",
"67",
"59",
"58",
"68",
"75",
"45",
"52",
"60",
"77",
"64",
"62",
"59",
"76",
"80",
"68",
"54",
"69",
"59",
"50",
"52",
"78",
"75",
"74",
"66",
"61",
"69",
"79",
"66",
"56",
"54",
"43",
"71",
"63",
"58",
"59",
"61",
"51",
"65",
"64",
"64",
"78",
"78",
"66",
"47",
"86",
"69",
"71",
"68",
"64",
"56",
"65",
"62",
"60",
"54",
"60",
"56",
"54",
"56",
"61",
"65",
"74",
"62",
"64",
"69",
"72",
"77",
"86",
"94",
"113",
"98",
"121",
"134",
"134",
"114",
"122",
"91",
"106",
"75",
"104",
"93",
"78",
"72",
"69",
"75",
"71",
"67",
"67",
"65",
"65",
"76",
"92",
"77",
"77",
"78",
"74",
"89",
"113",
"112",
"107",
"116",
"121",
"105",
"103",
"93",
"81",
"77",
"81",
"72",
"67",
"81",
"79",
"69",
"64",
"62",
"81",
"64",
"78",
"59",
"76",
"63",
"78",
"76",
"63",
"66",
"61",
"78",
"65",
"77",
"85",
"87",
"88",
"94",
"77",
"64",
"76",
"81",
"96",
"105",
"116",
"96",
"113",
"116",
"118",
"123",
"148",
"135",
"154",
"198",
"278",
"447",
"699",
"1238",
"2014",
"3356",
"5483",
"7971",
"11423",
"14692",
"18852",
"21762",
"25205",
"25556",
"25935",
"23483",
"22415",
"17532",
"14200",
"10386",
"7578",
"4785",
"3086",
"1759",
"1053",
"628",
"372",
"230",
"149",
"132",
"89",
"114",
"112",
"87",
"94",
"86",
"88",
"97",
"72",
"75",
"85",
"92",
"91",
"107",
"94",
"107",
"88",
"97",
"98",
"111",
"112",
"91",
"112",
"129",
"151",
"153",
"199",
"266",
"350",
"438",
"645",
"899",
"1227",
"1654",
"2170",
"2569",
"3019",
"3295",
"3703",
"3685",
"3481",
"3077",
"2706",
"2137",
"1779",
"1358",
"1006",
"673",
"480",
"318",
"220",
"145",
"115",
"94",
"75",
"53",
"65",
"43",
"47",
"60",
"52",
"63",
"55",
"45",
"47",
"56",
"47",
"43",
"54",
"45",
"53",
"55",
"50",
"38",
"55",
"49",
"48",
"53",
"39",
"48",
"56",
"40",
"40",
"55",
"46",
"42",
"47",
"49",
"51",
"43",
"52",
"48",
"63",
"51",
"46",
"56",
"54",
"52",
"56",
"29",
"41",
"42",
"47",
"40",
"51",
"65",
"56",
"46",
"45",
"45",
"52",
"39",
"60",
"38",
"42",
"46",
"40",
"43",
"40",
"43",
"41",
"43",
"64",
"51",
"43",
"45",
"54",
"50",
"52",
"39",
"47",
"43",
"50",
"51",
"48",
"54",
"63",
"27",
"42",
"30",
"50",
"37",
"41",
"43",
"40",
"46",
"38",
"45",
"41",
"34",
"50",
"56",
"45",
"42",
"49",
"46",
"51",
"52",
"47",
"42",
"49",
"45",
"39",
"51",
"48",
"39",
"47",
"55",
"42",
"51",
"46",
"42",
"47",
"38",
"51",
"47",
"46",
"41",
"51",
"45",
"31",
"33",
"60",
"46",
"60",
"39",
"37",
"52",
"25",
"30",
"50",
"36",
"41",
"34",
"38",
"47",
"47",
"33",
"46",
"37",
"36",
"38",
"39",
"43",
"49",
"41",
"41",
"40",
"33",
"43",
"34",
"41",
"38",
"39",
"28",
"34",
"38",
"34",
"40",
"39",
"45",
"38",
"28",
"36",
"42",
"27",
"37",
"46",
"39",
"41",
"36",
"37",
"46",
"41",
"52",
"30",
"39",
"37",
"37",
"31",
"42",
"33",
"46",
"39",
"37",
"26",
"34",
"33",
"34",
"35",
"35",
"46",
"33",
"42",
"27",
"28",
"38",
"31",
"40",
"43",
"36",
"35",
"40",
"37",
"42",
"33",
"42",
"42",
"36",
"36",
"40",
"31",
"40",
"37",
"35",
"41",
"46",
"33",
"43",
"31",
"41",
"27",
"28",
"29",
"30",
"25",
"45",
"29",
"37",
"26",
"31",
"39",
"30",
"30",
"35",
"39",
"41",
"36",
"38",
"28",
"20",
"28",
"36",
"37",
"29",
"42",
"48",
"33",
"31",
"40",
"29",
"35",
"38",
"30",
"46",
"40",
"33",
"40",
"31",
"33",
"25",
"37",
"25",
"26",
"27",
"33",
"33",
"36",
"31",
"37",
"35",
"37",
"36",
"29",
"35",
"43",
"34",
"26",
"35",
"33",
"33",
"38",
"26",
"31",
"35",
"28",
"33",
"36",
"36",
"39",
"27",
"40",
"35",
"31",
"33",
"25",
"36",
"37",
"37",
"27",
"36",
"31",
"38",
"36",
"33",
"29",
"34",
"30",
"27",
"24",
"29",
"36",
"45",
"31",
"28",
"27",
"31",
"25",
"37",
"27",
"35",
"30",
"43",
"28",
"33",
"30",
"40",
"39",
"41",
"36",
"45",
"25",
"36",
"33",
"33",
"35",
"41",
"39",
"37",
"34",
"43",
"25",
"47",
"27",
"42",
"26",
"38",
"39",
"42",
"30",
"33",
"51",
"54",
"31",
"52",
"60",
"40",
"52",
"58",
"53",
"39",
"45",
"45",
"61",
"51",
"88",
"71",
"72",
"86",
"90",
"98",
"84",
"115",
"132",
"127",
"111",
"141",
"155",
"150",
"143",
"167",
"175",
"203",
"220",
"195",
"207",
"220",
"193",
"225",
"183",
"216",
"202",
"213",
"188",
"197",
"181",
"181",
"176",
"187",
"200",
"165",
"152",
"148",
"109",
"118",
"122",
"110",
"105",
"110",
"115",
"99",
"87",
"103",
"86",
"79",
"110",
"102",
"89",
"79",
"92",
"92",
"59",
"93",
"86",
"87",
"93",
"88",
"102",
"105",
"100",
"121",
"113",
"115",
"105",
"141",
"106",
"123",
"93",
"96",
"84",
"65",
"80",
"68",
"66",
"64",
"42",
"43",
"43",
"28",
"28",
"39",
"36",
"31",
"35",
"15901",
"Channel_info_start",
"Channel : Mg",
"Points : 0",
"Range : 0.000000 - 0.000000",
"Step : 0.010000",
"Channel_info_end",
"Channel_info_start",
"Channel : Al",
"Points : 0",
"Range : 0.000000 - 0.000000",
"Step : 0.010000",
"Channel_info_end",
"Channel_info_start",
"Channel : Si",
"Points : 0",
"Range : 0.000000 - 0.000000",
"Step : 0.010000",
"Channel_info_end",
"Channel_info_start",
"Channel : P ",
"Points : 0",
"Range : 0.000000 - 0.000000",
"Step : 0.010000",
"Channel_info_end",
"Channel_info_start",
"Channel : S ",
"Points : 0",
"Range : 0.000000 - 0.000000",
"Step : 0.010000",
"Channel_info_end",
"Channel_info_start",
"Channel : Cl",
"Points : 0",
"Range : 0.000000 - 0.000000",
"Step : 0.010000",
"Channel_info_end",
"Channel_info_start",
"Channel : K ",
"Points : 0",
"Range : 0.000000 - 0.000000",
"Step : 0.010000",
"Channel_info_end",
"Channel_info_start",
"Channel : Ca",
"Points : 0",
"Range : 0.000000 - 0.000000",
"Step : 0.010000",
"Channel_info_end",
"Channel_info_start",
"Channel : Ti",
"Points : 0",
"Range : 0.000000 - 0.000000",
"Step : 0.010000",
"Channel_info_end",
"Channel_info_start",
"Channel : V ",
"Points : 0",
"Range : 0.000000 - 0.000000",
"Step : 0.010000",
"Channel_info_end",
"Channel_info_start",
"Channel : Cr",
"Points : 0",
"Range : 0.000000 - 0.000000",
"Step : 0.010000",
"Channel_info_end",
"Channel_info_start",
"Channel : Mn",
"Points : 0",
"Range : 0.000000 - 0.000000",
"Step : 0.010000",
"Channel_info_end",
"Channel_info_start",
"Channel : Fe",
"Points : 0",
"Range : 0.000000 - 0.000000",
"Step : 0.010000",
"Channel_info_end",
"Channel_info_start",
"Channel : Cu",
"Points : 0",
"Range : 0.000000 - 0.000000",
"Step : 0.010000",
"Channel_info_end",
"Channel_info_start",
"Channel : Zn",
"Points : 0",
"Range : 0.000000 - 0.000000",
"Step : 0.010000",
"Channel_info_end",
"Channel_info_start",
"Channel : Sr",
"Points : 0",
"Range : 0.000000 - 0.000000",
"Step : 0.010000",
"Channel_info_end",
"Channel_info_start",
"Channel : Pb",
"Points : 0",
"Range : 0.000000 - 0.000000",
"Step : 0.010000",
"Channel_info_end",
"",
"Qualitative Result",
"--------------------------------------------------------------------------------",
"Element :  Na, Ge, P , Ca, Ru",
"",
"Peak List",
"--------------------------------------------------------------------------------",
"Channel               Line        keV     Net Int.(cps/uA)",
"--------------------------------------------------------------------------------",
"Na                    NaKa         1.00     0.011",
"                      GeLa         1.20     0.378",
"                      P Ka         1.99     0.020",
"                      CaKa         3.68     0.278",
"                      CaKb         4.01     0.036",
"                      GeKaESC      8.07     0.049",
"                      GeKa         9.87    17.363",
"                      GeKb        10.97     2.541",
"                      ----        19.04     0.112",
"                      RuKa        19.36     0.081",
"                      ----        20.01     0.048",
"--------------------------------------------------------------------------------",
"",
"Quantitative Result",
"--------------------------------------------------------------------------------",
"Analyte               Result             Std.Dev. Proc.-Calc. Line Intensity(cps/uA)",
"--------------------------------------------------------------------------------",
"====[No. 1 Layer]====< Layer1               >===============================",
"Layer1                  10.801 ug/cm2    -------- Flux       -------- --------",
"Na                      10.801 ug/cm2    -------- ********** -------- --------",