File: inputs/edxCalibration/edx_raw/2010/junho/KCl 31494.20100525204724.csv
"Sample    : KCl 31494",
"Operator  : luisf",
"Comment  : cubatao-g-policarbonato",
"Group     : kerr2007ag180cal_lt",
"Date       : 2010-05-25 20:41:16",
"",
"Mesurement Condition",
"------------------------------------------------------------------------------------",
"Instrument : 700HS2   Atmosphere : Vac.   Collimator : 10(mm)   Spin : No",
"------------------------------------------------------------------------------------",
"Analyte               TG kV   uA      FI Acq.(keV)  Anal.(keV)  Time(sec)     DT(%)",
"------------------------------------------------------------------------------------",
"Na                    Rh 50  500-Auto Al  0 - 20    0.8 - 1.2   Live -  180   15",
"",
"<Profile>",
"Channel_info_start",
"Channel : Na",
"Points : 2048",
"Range : 0.000000 - 20.48",
"Step : 0.010000",
"Channel_info_end",
"0",
"0",
"0",
"0",
"0",
"0",
"0",
"0",
"0",
"0",
"0",
"0",
"0",
"0",
"1",
"13",
"25",
"36",
"37",
"31",
"39",
"39",
"29",
"33",
"32",
"34",
"31",
"29",
"38",
"28",
"34",
"32",
"35",
"35",
"37",
"37",
"38",
"43",
"44",
"61",
"93",
"103",
"156",
"181",
"215",
"179",
"131",
"99",
"74",
"45",
"49",
"46",
"60",
"60",
"52",
"45",
"45",
"34",
"46",
"51",
"46",
"45",
"38",
"43",
"45",
"49",
"40",
"58",
"53",
"53",
"53",
"64",
"65",
"93",
"107",
"113",
"211",
"228",
"269",
"287",
"223",
"184",
"132",
"79",
"70",
"71",
"70",
"75",
"67",
"79",
"75",
"93",
"110",
"82",
"70",
"88",
"99",
"116",
"149",
"219",
"233",
"217",
"206",
"159",
"159",
"109",
"119",
"115",
"133",
"119",
"151",
"167",
"149",
"164",
"187",
"189",
"215",
"201",
"235",
"215",
"216",
"206",
"263",
"297",
"441",
"721",
"1425",
"2617",
"4585",
"6780",
"8666",
"9587",
"9138",
"7362",
"5203",
"3098",
"1720",
"1025",
"856",
"891",
"997",
"1000",
"944",
"753",
"592",
"439",
"296",
"225",
"181",
"183",
"165",
"181",
"194",
"205",
"230",
"223",
"268",
"349",
"548",
"1051",
"2127",
"4154",
"7512",
"11437",
"15696",
"18000",
"19004",
"16812",
"13349",
"9107",
"5522",
"2797",
"1402",
"665",
"574",
"776",
"1191",
"1549",
"2170",
"2484",
"2749",
"2713",
"2726",
"2554",
"2383",
"1992",
"1775",
"1309",
"914",
"540",
"280",
"185",
"119",
"103",
"96",
"98",
"134",
"151",
"164",
"236",
"249",
"279",
"257",
"227",
"152",
"112",
"55",
"81",
"44",
"38",
"47",
"44",
"44",
"57",
"48",
"60",
"52",
"52",
"72",
"71",
"64",
"74",
"82",
"81",
"85",
"93",
"77",
"100",
"84",
"98",
"99",
"81",
"106",
"103",
"85",
"105",
"121",
"86",
"108",
"104",
"139",
"100",
"99",
"108",
"124",
"110",
"103",
"112",
"88",
"103",
"85",
"95",
"80",
"77",
"89",
"91",
"74",
"89",
"77",
"68",
"74",
"61",
"76",
"86",
"81",
"73",
"83",
"69",
"81",
"93",
"88",
"80",
"85",
"88",
"92",
"108",
"98",
"88",
"85",
"82",
"95",
"108",
"79",
"94",
"95",
"104",
"95",
"95",
"98",
"96",
"99",
"92",
"94",
"93",
"125",
"94",
"112",
"116",
"115",
"132",
"128",
"115",
"110",
"106",
"134",
"130",
"122",
"116",
"145",
"137",
"131",
"123",
"115",
"120",
"156",
"124",
"139",
"142",
"155",
"157",
"156",
"176",
"163",
"146",
"161",
"146",
"165",
"122",
"146",
"159",
"167",
"175",
"173",
"176",
"164",
"184",
"168",
"153",
"169",
"130",
"177",
"148",
"192",
"175",
"165",
"172",
"192",
"163",
"155",
"193",
"177",
"176",
"201",
"152",
"193",
"161",
"213",
"185",
"178",
"167",
"175",
"163",
"169",
"187",
"172",
"168",
"194",
"191",
"183",
"185",
"157",
"202",
"195",
"182",
"176",
"178",
"166",
"171",
"175",
"195",
"194",
"169",
"202",
"189",
"212",
"201",
"188",
"184",
"212",
"208",
"182",
"175",
"196",
"202",
"173",
"218",
"196",
"217",
"259",
"229",
"228",
"221",
"203",
"233",
"182",
"209",
"191",
"190",
"201",
"193",
"154",
"156",
"166",
"169",
"184",
"184",
"180",
"183",
"183",
"196",
"180",
"192",
"175",
"192",
"192",
"203",
"220",
"250",
"237",
"261",
"254",
"252",
"276",
"256",
"226",
"225",
"230",
"196",
"183",
"172",
"193",
"163",
"178",
"195",
"185",
"194",
"194",
"155",
"189",
"153",
"177",
"168",
"147",
"181",
"175",
"159",
"171",
"172",
"151",
"157",
"167",
"163",
"176",
"145",
"171",
"160",
"183",
"177",
"193",
"173",
"168",
"172",
"182",
"183",
"169",
"177",
"169",
"173",
"213",
"181",
"176",
"168",
"180",
"194",
"200",
"177",
"181",
"158",
"181",
"195",
"171",
"163",
"199",
"167",
"169",
"170",
"232",
"167",
"207",
"147",
"204",
"180",
"214",
"170",
"170",
"185",
"209",
"175",
"156",
"147",
"216",
"189",
"181",
"163",
"201",
"166",
"172",
"146",
"159",
"160",
"169",
"177",
"181",
"189",
"184",
"169",
"165",
"185",
"173",
"164",
"163",
"187",
"177",
"158",
"163",
"136",
"175",
"172",
"189",
"156",
"154",
"166",
"155",
"189",
"166",
"195",
"172",
"143",
"149",
"179",
"185",
"163",
"184",
"165",
"188",
"148",
"161",
"171",
"151",
"152",
"165",
"153",
"168",
"159",
"157",
"148",
"184",
"164",
"139",
"163",
"172",
"167",
"164",
"161",
"151",
"168",
"149",
"194",
"152",
"152",
"155",
"146",
"170",
"153",
"151",
"148",
"136",
"148",
"132",
"158",
"170",
"151",
"188",
"178",
"179",
"143",
"152",
"148",
"165",
"164",
"171",
"165",
"158",
"140",
"140",
"157",
"156",
"157",
"171",
"135",
"149",
"158",
"145",
"137",
"143",
"168",
"146",
"160",
"149",
"157",
"147",
"143",
"170",
"154",
"159",
"131",
"142",
"144",
"175",
"145",
"181",
"148",
"157",
"147",
"148",
"160",
"145",
"134",
"175",
"149",
"166",
"158",
"133",
"151",
"154",
"153",
"137",
"167",
"139",
"165",
"151",
"147",
"158",
"155",
"154",
"156",
"149",
"157",
"134",
"145",
"137",
"139",
"154",
"123",
"156",
"103",
"169",
"134",
"142",
"131",
"133",
"143",
"136",
"133",
"151",
"136",
"123",
"143",
"147",
"134",
"155",
"147",
"146",
"141",
"149",
"135",
"116",
"127",
"159",
"101",
"125",
"157",
"142",
"127",
"129",
"120",
"130",
"134",
"130",
"111",
"140",
"136",
"131",
"134",
"169",
"131",
"149",
"117",
"122",
"119",
"136",
"127",
"129",
"113",
"147",
"116",
"130",
"132",
"119",
"149",
"137",
"115",
"131",
"117",
"129",
"127",
"128",
"121",
"120",
"128",
"127",
"149",
"125",
"98",
"130",
"120",
"135",
"117",
"123",
"127",
"135",
"108",
"136",
"129",
"124",
"147",
"113",
"113",
"127",
"144",
"118",
"128",
"124",
"131",
"124",
"117",
"142",
"108",
"131",
"125",
"117",
"135",
"124",
"131",
"120",
"112",
"115",
"131",
"125",
"124",
"123",
"110",
"135",
"129",
"121",
"125",
"118",
"131",
"115",
"105",
"123",
"131",
"121",
"103",
"123",
"105",
"124",
"96",
"121",
"127",
"117",
"89",
"106",
"106",
"119",
"107",
"118",
"121",
"118",
"108",
"104",
"123",
"108",
"111",
"107",
"109",
"105",
"98",
"119",
"118",
"104",
"105",
"110",
"116",
"112",
"120",
"119",
"123",
"95",
"119",
"100",
"95",
"141",
"115",
"112",
"101",
"99",
"113",
"88",
"93",
"110",
"104",
"116",
"108",
"123",
"104",
"113",
"95",
"86",
"120",
"110",
"111",
"95",
"104",
"128",
"113",
"109",
"115",
"124",
"115",
"99",
"124",
"105",
"85",
"105",
"95",
"110",
"118",
"94",
"93",
"80",
"101",
"101",
"115",
"99",
"109",
"117",
"98",
"121",
"89",
"110",
"110",
"93",
"104",
"111",
"108",
"107",
"100",
"133",
"101",
"116",
"98",
"108",
"116",
"104",
"77",
"113",
"106",
"116",
"110",
"101",
"97",
"129",
"108",
"122",
"110",
"117",
"117",
"100",
"92",
"110",
"107",
"130",
"130",
"117",
"108",
"106",
"103",
"112",
"124",
"92",
"120",
"125",
"111",
"132",
"140",
"125",
"131",
"129",
"130",
"144",
"159",
"140",
"151",
"141",
"166",
"179",
"159",
"183",
"166",
"168",
"177",
"208",
"181",
"221",
"183",
"207",
"252",
"240",
"265",
"299",
"320",
"313",
"413",
"428",
"383",
"471",
"457",
"571",
"518",
"557",
"583",
"718",
"601",
"695",
"693",
"791",
"747",
"719",
"716",
"851",
"748",
"717",
"681",
"707",
"668",
"621",
"607",
"600",
"519",
"536",
"482",
"460",
"437",
"416",
"363",
"325",
"285",
"296",
"229",
"237",
"225",
"220",
"191",
"175",
"191",
"189",
"158",
"152",
"168",
"173",
"151",
"187",
"173",
"170",
"219",
"239",
"256",
"268",
"250",
"332",
"336",
"309",
"311",
"345",
"312",
"312",
"280",
"267",
"265",
"196",
"204",
"193",
"141",
"152",
"143",
"120",
"110",
"89",
"94",
"108",
"99",
"108",
"87",
"50521",
"Channel_info_start",
"Channel : Mg",
"Points : 0",
"Range : 0.000000 - 0.000000",
"Step : 0.010000",
"Channel_info_end",
"Channel_info_start",
"Channel : Al",
"Points : 0",
"Range : 0.000000 - 0.000000",
"Step : 0.010000",
"Channel_info_end",
"Channel_info_start",
"Channel : Si",
"Points : 0",
"Range : 0.000000 - 0.000000",
"Step : 0.010000",
"Channel_info_end",
"Channel_info_start",
"Channel : P ",
"Points : 0",
"Range : 0.000000 - 0.000000",
"Step : 0.010000",
"Channel_info_end",
"Channel_info_start",
"Channel : S ",
"Points : 0",
"Range : 0.000000 - 0.000000",
"Step : 0.010000",
"Channel_info_end",
"Channel_info_start",
"Channel : Cl",
"Points : 0",
"Range : 0.000000 - 0.000000",
"Step : 0.010000",
"Channel_info_end",
"Channel_info_start",
"Channel : K ",
"Points : 0",
"Range : 0.000000 - 0.000000",
"Step : 0.010000",
"Channel_info_end",
"Channel_info_start",
"Channel : Ca",
"Points : 0",
"Range : 0.000000 - 0.000000",
"Step : 0.010000",
"Channel_info_end",
"Channel_info_start",
"Channel : Ti",
"Points : 0",
"Range : 0.000000 - 0.000000",
"Step : 0.010000",
"Channel_info_end",
"Channel_info_start",
"Channel : V ",
"Points : 0",
"Range : 0.000000 - 0.000000",
"Step : 0.010000",
"Channel_info_end",
"Channel_info_start",
"Channel : Cr",
"Points : 0",
"Range : 0.000000 - 0.000000",
"Step : 0.010000",
"Channel_info_end",
"Channel_info_start",
"Channel : Mn",
"Points : 0",
"Range : 0.000000 - 0.000000",
"Step : 0.010000",
"Channel_info_end",
"Channel_info_start",
"Channel : Fe",
"Points : 0",
"Range : 0.000000 - 0.000000",
"Step : 0.010000",
"Channel_info_end",
"Channel_info_start",
"Channel : Cu",
"Points : 0",
"Range : 0.000000 - 0.000000",
"Step : 0.010000",
"Channel_info_end",
"Channel_info_start",
"Channel : Zn",
"Points : 0",
"Range : 0.000000 - 0.000000",
"Step : 0.010000",
"Channel_info_end",
"Channel_info_start",
"Channel : Sr",
"Points : 0",
"Range : 0.000000 - 0.000000",
"Step : 0.010000",
"Channel_info_end",
"Channel_info_start",
"Channel : Pb",
"Points : 0",
"Range : 0.000000 - 0.000000",
"Step : 0.010000",
"Channel_info_end",
"",
"Qualitative Result",
"--------------------------------------------------------------------------------",
"Element :  P , Cl, K , Ca, Zn",
"",
"Peak List",
"--------------------------------------------------------------------------------",
"Channel               Line        keV     Net Int.(cps/uA)",
"--------------------------------------------------------------------------------",
"Na                    ----         0.87     0.020",
"                      ----         1.58     0.031",
"                      P Ka         1.99     0.017",
"                      ClKa         2.62     1.361",
"                      ClKb         2.82     0.122",
"                      K Ka         3.32     2.870",
"                      K Kb         3.60     0.403",
"                      CaKa         3.69     0.218",
"                      CaKb         4.02     0.031",
"                      ZnKa         8.64     0.020",
"                      ----        19.20     0.142",
"                      ----        19.47     0.053",
"--------------------------------------------------------------------------------",
"",
"Quantitative Result",
"--------------------------------------------------------------------------------",
"Analyte               Result             Std.Dev. Proc.-Calc. Line Intensity(cps/uA)",
"--------------------------------------------------------------------------------",
"====[No. 1 Layer]====< Layer1               >===============================",
"Layer1                   0.000 ug/cm2    -------- Flux       -------- --------",