File: inputs/edxCalibration/edx_raw/2010/junho/Mg 31491.20100611003539.csv
"Sample    : Mg 31491",
"Operator  : thiago",
"Comment  : cubatao-g-policarbonato",
"Group     : kerr2007ag180cal_lt",
"Date       : 2010-06-11 00:31:30",
"",
"Mesurement Condition",
"------------------------------------------------------------------------------------",
"Instrument : 700HS2   Atmosphere : Vac.   Collimator : 10(mm)   Spin : No",
"------------------------------------------------------------------------------------",
"Analyte               TG kV   uA      FI Acq.(keV)  Anal.(keV)  Time(sec)     DT(%)",
"------------------------------------------------------------------------------------",
"Na                    Rh 50  970-Auto Al  0 - 20    0.8 - 1.2   Live -  179   14",
"",
"<Profile>",
"Channel_info_start",
"Channel : Na",
"Points : 2048",
"Range : 0.000000 - 20.48",
"Step : 0.010000",
"Channel_info_end",
"0",
"0",
"0",
"0",
"0",
"0",
"0",
"0",
"0",
"0",
"0",
"0",
"0",
"0",
"1",
"14",
"53",
"52",
"41",
"59",
"25",
"50",
"36",
"52",
"26",
"41",
"39",
"40",
"32",
"30",
"31",
"45",
"41",
"36",
"54",
"49",
"30",
"36",
"46",
"32",
"38",
"40",
"28",
"31",
"51",
"46",
"40",
"35",
"50",
"43",
"36",
"42",
"36",
"44",
"40",
"39",
"38",
"43",
"42",
"73",
"132",
"159",
"189",
"176",
"174",
"114",
"112",
"67",
"57",
"43",
"36",
"38",
"44",
"32",
"40",
"37",
"32",
"30",
"33",
"40",
"57",
"58",
"57",
"76",
"95",
"109",
"142",
"135",
"137",
"118",
"115",
"84",
"68",
"67",
"98",
"92",
"123",
"170",
"221",
"312",
"376",
"295",
"285",
"244",
"140",
"110",
"88",
"52",
"52",
"43",
"37",
"45",
"43",
"42",
"36",
"31",
"45",
"26",
"26",
"38",
"23",
"28",
"33",
"22",
"40",
"37",
"28",
"30",
"37",
"23",
"32",
"45",
"43",
"49",
"49",
"60",
"46",
"52",
"42",
"52",
"38",
"67",
"50",
"43",
"57",
"56",
"52",
"40",
"47",
"37",
"42",
"57",
"43",
"40",
"29",
"27",
"54",
"45",
"50",
"39",
"58",
"52",
"49",
"64",
"53",
"52",
"33",
"58",
"54",
"45",
"53",
"62",
"62",
"57",
"68",
"97",
"153",
"218",
"401",
"660",
"1170",
"1921",
"2536",
"3243",
"3578",
"3485",
"3194",
"2497",
"1847",
"1157",
"638",
"366",
"274",
"207",
"212",
"231",
"259",
"320",
"353",
"461",
"542",
"516",
"474",
"354",
"325",
"218",
"162",
"110",
"122",
"70",
"73",
"63",
"80",
"86",
"92",
"84",
"98",
"119",
"122",
"151",
"149",
"131",
"201",
"152",
"213",
"177",
"202",
"170",
"197",
"209",
"197",
"186",
"219",
"178",
"190",
"167",
"168",
"146",
"168",
"158",
"138",
"129",
"144",
"142",
"151",
"125",
"125",
"133",
"142",
"123",
"137",
"121",
"153",
"112",
"146",
"144",
"140",
"148",
"115",
"128",
"131",
"105",
"134",
"134",
"152",
"154",
"161",
"172",
"153",
"188",
"179",
"186",
"183",
"179",
"156",
"174",
"162",
"182",
"214",
"205",
"196",
"174",
"183",
"173",
"224",
"193",
"201",
"221",
"169",
"176",
"197",
"206",
"202",
"201",
"242",
"219",
"226",
"203",
"189",
"220",
"238",
"213",
"227",
"215",
"218",
"237",
"241",
"254",
"265",
"254",
"254",
"244",
"261",
"247",
"237",
"277",
"270",
"267",
"301",
"250",
"313",
"249",
"287",
"258",
"267",
"287",
"264",
"283",
"290",
"311",
"270",
"271",
"289",
"295",
"331",
"278",
"288",
"294",
"303",
"308",
"302",
"279",
"308",
"302",
"318",
"306",
"301",
"353",
"325",
"310",
"349",
"335",
"331",
"325",
"351",
"313",
"316",
"324",
"317",
"324",
"324",
"353",
"325",
"311",
"323",
"259",
"299",
"283",
"281",
"313",
"299",
"290",
"300",
"295",
"330",
"335",
"325",
"332",
"282",
"339",
"305",
"300",
"351",
"306",
"292",
"305",
"332",
"311",
"336",
"310",
"342",
"338",
"332",
"351",
"343",
"337",
"403",
"379",
"414",
"474",
"579",
"614",
"682",
"793",
"872",
"951",
"980",
"983",
"943",
"820",
"756",
"671",
"615",
"494",
"440",
"383",
"342",
"369",
"344",
"341",
"335",
"357",
"305",
"372",
"359",
"382",
"434",
"453",
"474",
"459",
"477",
"448",
"496",
"488",
"462",
"421",
"420",
"401",
"345",
"345",
"343",
"374",
"326",
"350",
"349",
"303",
"325",
"330",
"324",
"317",
"365",
"332",
"309",
"313",
"330",
"328",
"372",
"383",
"401",
"372",
"482",
"489",
"555",
"572",
"653",
"639",
"692",
"756",
"683",
"635",
"632",
"578",
"508",
"468",
"466",
"454",
"476",
"440",
"474",
"426",
"469",
"487",
"427",
"426",
"434",
"398",
"408",
"377",
"380",
"324",
"314",
"310",
"304",
"319",
"335",
"306",
"345",
"282",
"326",
"278",
"331",
"285",
"310",
"300",
"314",
"317",
"315",
"300",
"306",
"337",
"292",
"327",
"310",
"273",
"308",
"300",
"344",
"292",
"325",
"301",
"269",
"320",
"290",
"299",
"327",
"259",
"306",
"296",
"337",
"287",
"336",
"282",
"317",
"287",
"290",
"304",
"301",
"318",
"291",
"342",
"352",
"358",
"364",
"343",
"382",
"327",
"361",
"344",
"313",
"316",
"329",
"299",
"304",
"286",
"296",
"327",
"279",
"305",
"320",
"325",
"344",
"324",
"324",
"290",
"331",
"316",
"292",
"297",
"308",
"300",
"300",
"316",
"327",
"290",
"288",
"285",
"312",
"302",
"301",
"295",
"291",
"281",
"271",
"270",
"268",
"313",
"275",
"311",
"286",
"296",
"296",
"317",
"289",
"288",
"274",
"270",
"286",
"271",
"296",
"291",
"301",
"251",
"290",
"271",
"243",
"247",
"304",
"315",
"308",
"272",
"259",
"271",
"264",
"257",
"274",
"259",
"301",
"241",
"248",
"288",
"265",
"273",
"257",
"289",
"277",
"261",
"268",
"263",
"283",
"291",
"303",
"270",
"290",
"291",
"286",
"262",
"267",
"253",
"309",
"287",
"270",
"233",
"245",
"279",
"288",
"276",
"292",
"249",
"275",
"290",
"299",
"232",
"256",
"284",
"274",
"247",
"289",
"273",
"264",
"257",
"295",
"256",
"284",
"246",
"279",
"268",
"275",
"243",
"251",
"257",
"230",
"259",
"258",
"240",
"258",
"237",
"259",
"246",
"274",
"248",
"233",
"234",
"276",
"250",
"263",
"231",
"257",
"233",
"267",
"238",
"248",
"256",
"271",
"240",
"267",
"260",
"250",
"284",
"264",
"227",
"259",
"250",
"260",
"223",
"255",
"260",
"251",
"247",
"260",
"223",
"257",
"254",
"227",
"245",
"236",
"254",
"259",
"240",
"221",
"220",
"244",
"245",
"241",
"231",
"226",
"215",
"226",
"257",
"237",
"236",
"215",
"206",
"232",
"214",
"260",
"208",
"213",
"214",
"255",
"221",
"255",
"200",
"207",
"231",
"217",
"231",
"207",
"240",
"209",
"223",
"267",
"202",
"258",
"212",
"214",
"191",
"223",
"246",
"227",
"204",
"228",
"192",
"230",
"216",
"250",
"196",
"222",
"229",
"253",
"222",
"222",
"203",
"209",
"207",
"219",
"224",
"212",
"209",
"221",
"212",
"207",
"199",
"220",
"213",
"250",
"223",
"220",
"176",
"212",
"208",
"201",
"196",
"222",
"214",
"197",
"192",
"234",
"205",
"209",
"203",
"214",
"194",
"220",
"212",
"204",
"187",
"206",
"192",
"221",
"206",
"203",
"187",
"246",
"199",
"185",
"188",
"201",
"201",
"186",
"182",
"213",
"169",
"204",
"197",
"228",
"208",
"190",
"206",
"241",
"199",
"205",
"186",
"197",
"210",
"199",
"215",
"208",
"205",
"210",
"197",
"206",
"179",
"218",
"197",
"186",
"205",
"200",
"205",
"209",
"187",
"206",
"210",
"205",
"168",
"192",
"192",
"219",
"180",
"170",
"201",
"209",
"186",
"176",
"208",
"224",
"177",
"203",
"193",
"215",
"176",
"195",
"192",
"181",
"182",
"209",
"191",
"194",
"191",
"182",
"200",
"195",
"163",
"210",
"182",
"209",
"173",
"202",
"220",
"203",
"201",
"222",
"191",
"214",
"218",
"214",
"194",
"236",
"216",
"234",
"200",
"229",
"208",
"215",
"209",
"231",
"238",
"234",
"240",
"227",
"224",
"212",
"226",
"247",
"221",
"263",
"246",
"237",
"269",
"265",
"251",
"257",
"290",
"265",
"259",
"289",
"288",
"275",
"303",
"353",
"338",
"341",
"349",
"374",
"379",
"379",
"395",
"452",
"486",
"522",
"496",
"589",
"612",
"657",
"738",
"826",
"792",
"864",
"924",
"1025",
"1014",
"1141",
"1186",
"1280",
"1322",
"1292",
"1322",
"1491",
"1445",
"1438",
"1419",
"1593",
"1350",
"1340",
"1378",
"1396",
"1175",
"1263",
"1131",
"1060",
"1007",
"1007",
"903",
"906",
"777",
"809",
"655",
"670",
"560",
"570",
"488",
"466",
"448",
"411",
"357",
"368",
"299",
"340",
"319",
"320",
"290",
"312",
"274",
"364",
"358",
"367",
"371",
"459",
"392",
"420",
"461",
"504",
"536",
"556",
"575",
"584",
"523",
"502",
"489",
"477",
"460",
"425",
"386",
"359",
"324",
"296",
"261",
"305",
"206",
"212",
"182",
"175",
"162",
"167",
"185",
"96485",
"Channel_info_start",
"Channel : Mg",
"Points : 0",
"Range : 0.000000 - 0.000000",
"Step : 0.010000",
"Channel_info_end",
"Channel_info_start",
"Channel : Al",
"Points : 0",
"Range : 0.000000 - 0.000000",
"Step : 0.010000",
"Channel_info_end",
"Channel_info_start",
"Channel : Si",
"Points : 0",
"Range : 0.000000 - 0.000000",
"Step : 0.010000",
"Channel_info_end",
"Channel_info_start",
"Channel : P ",
"Points : 0",
"Range : 0.000000 - 0.000000",
"Step : 0.010000",
"Channel_info_end",
"Channel_info_start",
"Channel : S ",
"Points : 0",
"Range : 0.000000 - 0.000000",
"Step : 0.010000",
"Channel_info_end",
"Channel_info_start",
"Channel : Cl",
"Points : 0",
"Range : 0.000000 - 0.000000",
"Step : 0.010000",
"Channel_info_end",
"Channel_info_start",
"Channel : K ",
"Points : 0",
"Range : 0.000000 - 0.000000",
"Step : 0.010000",
"Channel_info_end",
"Channel_info_start",
"Channel : Ca",
"Points : 0",
"Range : 0.000000 - 0.000000",
"Step : 0.010000",
"Channel_info_end",
"Channel_info_start",
"Channel : Ti",
"Points : 0",
"Range : 0.000000 - 0.000000",
"Step : 0.010000",
"Channel_info_end",
"Channel_info_start",
"Channel : V ",
"Points : 0",
"Range : 0.000000 - 0.000000",
"Step : 0.010000",
"Channel_info_end",
"Channel_info_start",
"Channel : Cr",
"Points : 0",
"Range : 0.000000 - 0.000000",
"Step : 0.010000",
"Channel_info_end",
"Channel_info_start",
"Channel : Mn",
"Points : 0",
"Range : 0.000000 - 0.000000",
"Step : 0.010000",
"Channel_info_end",
"Channel_info_start",
"Channel : Fe",
"Points : 0",
"Range : 0.000000 - 0.000000",
"Step : 0.010000",
"Channel_info_end",
"Channel_info_start",
"Channel : Cu",
"Points : 0",
"Range : 0.000000 - 0.000000",
"Step : 0.010000",
"Channel_info_end",
"Channel_info_start",
"Channel : Zn",
"Points : 0",
"Range : 0.000000 - 0.000000",
"Step : 0.010000",
"Channel_info_end",
"Channel_info_start",
"Channel : Sr",
"Points : 0",
"Range : 0.000000 - 0.000000",
"Step : 0.010000",
"Channel_info_end",
"Channel_info_start",
"Channel : Pb",
"Points : 0",
"Range : 0.000000 - 0.000000",
"Step : 0.010000",
"Channel_info_end",
"",
"Qualitative Result",
"--------------------------------------------------------------------------------",
"Element :  Mg, Si, P , Ca, Zn, Ru",
"",
"Peak List",
"--------------------------------------------------------------------------------",
"Channel               Line        keV     Net Int.(cps/uA)",
"--------------------------------------------------------------------------------",
"Na                    MgKa         1.25     0.008",
"                      SiKa         1.75     0.007",
"                      P Ka         2.00     0.023",
"                      CaKa         3.68     0.287",
"                      CaKb         4.00     0.038",
"                      ----         4.57     0.009",
"                      ----         8.13     0.068",
"                      ZnKa         8.66     0.017",
"                      ----         9.34     0.043",
"                      ZnKb         9.62     0.019",
"                      RuKa        19.17     0.132",
"                      ----        19.45     0.057",
"                      ----        19.94     0.020",
"--------------------------------------------------------------------------------",
"",
"Quantitative Result",
"--------------------------------------------------------------------------------",
"Analyte               Result             Std.Dev. Proc.-Calc. Line Intensity(cps/uA)",
"--------------------------------------------------------------------------------",
"====[No. 1 Layer]====< Layer1               >===============================",
"Layer1                   0.000 ug/cm2    -------- Flux       -------- --------",