File: inputs/edxCalibration/edx_raw/2010/junho/Mg15751.20100611003947.csv
"Sample    : Mg15751",
"Operator  : thiago",
"Comment  : cubatao-g-policarbonato",
"Group     : kerr2007ag180cal_lt",
"Date       : 2010-06-11 00:35:38",
"",
"Mesurement Condition",
"------------------------------------------------------------------------------------",
"Instrument : 700HS2   Atmosphere : Vac.   Collimator : 10(mm)   Spin : No",
"------------------------------------------------------------------------------------",
"Analyte               TG kV   uA      FI Acq.(keV)  Anal.(keV)  Time(sec)     DT(%)",
"------------------------------------------------------------------------------------",
"Na                    Rh 50  970-Auto Al  0 - 20    0.8 - 1.2   Live -  179   14",
"",
"<Profile>",
"Channel_info_start",
"Channel : Na",
"Points : 2048",
"Range : 0.000000 - 20.48",
"Step : 0.010000",
"Channel_info_end",
"0",
"0",
"0",
"0",
"0",
"0",
"0",
"0",
"0",
"0",
"0",
"0",
"0",
"0",
"1",
"13",
"40",
"38",
"70",
"57",
"51",
"43",
"41",
"44",
"47",
"43",
"51",
"37",
"42",
"41",
"41",
"46",
"46",
"41",
"59",
"34",
"37",
"50",
"37",
"41",
"32",
"34",
"48",
"40",
"24",
"36",
"41",
"34",
"51",
"33",
"55",
"54",
"78",
"59",
"76",
"66",
"119",
"147",
"297",
"543",
"996",
"1385",
"1771",
"1766",
"1512",
"1126",
"660",
"346",
"197",
"88",
"58",
"53",
"52",
"42",
"59",
"41",
"45",
"26",
"32",
"38",
"44",
"45",
"26",
"43",
"32",
"51",
"48",
"52",
"43",
"48",
"34",
"53",
"53",
"47",
"57",
"54",
"92",
"115",
"122",
"205",
"204",
"191",
"143",
"143",
"82",
"76",
"48",
"50",
"41",
"36",
"30",
"24",
"34",
"36",
"45",
"44",
"31",
"29",
"27",
"28",
"30",
"16",
"26",
"28",
"24",
"17",
"41",
"39",
"29",
"27",
"37",
"47",
"51",
"50",
"41",
"39",
"53",
"47",
"48",
"46",
"41",
"42",
"47",
"60",
"47",
"40",
"48",
"30",
"41",
"42",
"42",
"40",
"32",
"44",
"44",
"43",
"34",
"50",
"38",
"54",
"36",
"43",
"38",
"41",
"39",
"43",
"23",
"47",
"51",
"46",
"44",
"43",
"52",
"40",
"83",
"81",
"143",
"167",
"298",
"443",
"755",
"1060",
"1517",
"1771",
"2072",
"2042",
"1928",
"1524",
"1074",
"694",
"425",
"288",
"212",
"173",
"198",
"187",
"225",
"220",
"292",
"305",
"330",
"309",
"295",
"252",
"214",
"179",
"120",
"122",
"102",
"99",
"71",
"83",
"89",
"97",
"87",
"119",
"115",
"128",
"120",
"129",
"135",
"137",
"165",
"137",
"163",
"139",
"180",
"163",
"178",
"157",
"166",
"173",
"159",
"166",
"149",
"142",
"153",
"151",
"150",
"150",
"142",
"149",
"143",
"140",
"143",
"140",
"130",
"141",
"154",
"114",
"149",
"148",
"134",
"130",
"170",
"131",
"131",
"152",
"164",
"157",
"162",
"175",
"151",
"144",
"156",
"155",
"175",
"156",
"176",
"164",
"208",
"144",
"190",
"171",
"167",
"172",
"213",
"155",
"165",
"197",
"164",
"173",
"191",
"184",
"193",
"172",
"195",
"204",
"192",
"228",
"217",
"181",
"210",
"218",
"224",
"234",
"224",
"212",
"217",
"224",
"241",
"249",
"218",
"253",
"224",
"208",
"246",
"266",
"236",
"267",
"245",
"250",
"239",
"284",
"275",
"289",
"274",
"304",
"293",
"302",
"331",
"309",
"283",
"293",
"281",
"302",
"301",
"282",
"275",
"301",
"324",
"267",
"333",
"308",
"338",
"316",
"302",
"323",
"329",
"317",
"320",
"335",
"312",
"326",
"300",
"331",
"312",
"333",
"310",
"340",
"322",
"338",
"321",
"318",
"319",
"287",
"319",
"338",
"294",
"377",
"286",
"334",
"317",
"304",
"322",
"315",
"297",
"328",
"337",
"309",
"318",
"333",
"315",
"297",
"316",
"322",
"294",
"312",
"300",
"314",
"351",
"328",
"302",
"286",
"326",
"356",
"358",
"317",
"321",
"325",
"366",
"345",
"363",
"398",
"353",
"371",
"366",
"370",
"421",
"400",
"389",
"413",
"414",
"445",
"384",
"389",
"368",
"336",
"331",
"345",
"326",
"306",
"332",
"317",
"334",
"336",
"345",
"305",
"330",
"305",
"344",
"357",
"360",
"349",
"358",
"404",
"416",
"387",
"460",
"446",
"517",
"470",
"468",
"463",
"506",
"439",
"427",
"409",
"384",
"366",
"329",
"375",
"311",
"368",
"358",
"321",
"308",
"332",
"348",
"346",
"330",
"302",
"334",
"321",
"343",
"317",
"288",
"290",
"339",
"328",
"343",
"336",
"337",
"346",
"329",
"306",
"370",
"340",
"334",
"326",
"335",
"297",
"350",
"300",
"372",
"305",
"340",
"319",
"344",
"344",
"353",
"320",
"321",
"304",
"345",
"288",
"318",
"334",
"334",
"323",
"312",
"308",
"323",
"310",
"304",
"344",
"309",
"333",
"337",
"331",
"306",
"296",
"338",
"312",
"293",
"306",
"338",
"318",
"322",
"345",
"321",
"316",
"310",
"284",
"300",
"306",
"323",
"309",
"320",
"322",
"297",
"301",
"281",
"323",
"361",
"280",
"364",
"315",
"297",
"329",
"332",
"336",
"302",
"336",
"296",
"326",
"284",
"340",
"306",
"287",
"332",
"322",
"329",
"298",
"297",
"305",
"334",
"282",
"332",
"320",
"340",
"356",
"310",
"309",
"381",
"305",
"304",
"254",
"314",
"289",
"337",
"304",
"316",
"274",
"303",
"282",
"324",
"302",
"322",
"267",
"297",
"290",
"311",
"290",
"288",
"265",
"323",
"246",
"302",
"307",
"284",
"301",
"316",
"263",
"310",
"262",
"281",
"304",
"362",
"297",
"316",
"282",
"344",
"312",
"292",
"286",
"286",
"254",
"297",
"232",
"338",
"286",
"286",
"310",
"322",
"290",
"312",
"303",
"294",
"279",
"261",
"295",
"264",
"269",
"304",
"318",
"278",
"268",
"295",
"258",
"283",
"288",
"280",
"260",
"302",
"298",
"276",
"301",
"272",
"258",
"286",
"304",
"291",
"293",
"284",
"265",
"301",
"254",
"314",
"264",
"300",
"275",
"289",
"266",
"281",
"246",
"282",
"255",
"287",
"278",
"312",
"278",
"277",
"291",
"249",
"266",
"303",
"254",
"281",
"240",
"290",
"237",
"294",
"276",
"270",
"253",
"242",
"291",
"303",
"259",
"275",
"263",
"256",
"274",
"263",
"239",
"279",
"245",
"244",
"255",
"262",
"240",
"254",
"254",
"229",
"234",
"273",
"232",
"255",
"281",
"244",
"242",
"248",
"283",
"274",
"267",
"270",
"235",
"292",
"274",
"248",
"262",
"263",
"258",
"275",
"255",
"229",
"253",
"249",
"220",
"269",
"241",
"220",
"232",
"250",
"255",
"207",
"247",
"232",
"277",
"282",
"215",
"260",
"234",
"261",
"247",
"236",
"233",
"253",
"250",
"249",
"238",
"260",
"227",
"248",
"251",
"241",
"206",
"255",
"223",
"200",
"218",
"223",
"220",
"250",
"228",
"231",
"217",
"270",
"222",
"245",
"218",
"269",
"196",
"258",
"210",
"209",
"200",
"246",
"250",
"225",
"220",
"277",
"217",
"220",
"208",
"236",
"224",
"259",
"232",
"240",
"206",
"211",
"192",
"235",
"231",
"236",
"234",
"219",
"185",
"221",
"205",
"231",
"228",
"218",
"225",
"222",
"214",
"191",
"185",
"228",
"198",
"244",
"200",
"227",
"207",
"246",
"222",
"221",
"222",
"232",
"191",
"225",
"205",
"206",
"212",
"218",
"205",
"224",
"185",
"215",
"169",
"229",
"197",
"206",
"219",
"229",
"195",
"181",
"219",
"211",
"183",
"198",
"213",
"221",
"199",
"193",
"200",
"200",
"224",
"180",
"204",
"191",
"197",
"208",
"210",
"199",
"203",
"207",
"232",
"224",
"181",
"186",
"200",
"187",
"201",
"229",
"193",
"185",
"234",
"209",
"184",
"172",
"190",
"196",
"193",
"190",
"213",
"231",
"213",
"205",
"197",
"203",
"192",
"220",
"200",
"214",
"191",
"224",
"192",
"185",
"191",
"172",
"197",
"179",
"203",
"197",
"191",
"209",
"197",
"227",
"199",
"217",
"212",
"206",
"198",
"201",
"194",
"204",
"197",
"204",
"219",
"217",
"195",
"198",
"235",
"234",
"207",
"234",
"200",
"208",
"209",
"215",
"200",
"207",
"215",
"208",
"214",
"236",
"224",
"240",
"252",
"248",
"211",
"261",
"244",
"255",
"235",
"251",
"245",
"276",
"258",
"297",
"282",
"278",
"270",
"312",
"303",
"317",
"330",
"321",
"339",
"409",
"427",
"416",
"436",
"459",
"490",
"498",
"542",
"587",
"621",
"708",
"687",
"868",
"799",
"943",
"977",
"1034",
"1128",
"1173",
"1196",
"1325",
"1316",
"1420",
"1300",
"1461",
"1441",
"1456",
"1472",
"1591",
"1474",
"1405",
"1388",
"1406",
"1332",
"1285",
"1195",
"1166",
"1088",
"1066",
"941",
"966",
"795",
"790",
"662",
"643",
"606",
"598",
"478",
"474",
"490",
"434",
"390",
"373",
"325",
"356",
"323",
"318",
"307",
"315",
"311",
"339",
"326",
"356",
"401",
"421",
"415",
"474",
"490",
"519",
"561",
"552",
"600",
"614",
"567",
"552",
"476",
"551",
"443",
"465",
"374",
"376",
"302",
"309",
"259",
"231",
"229",
"195",
"179",
"223",
"167",
"176",
"162",
"100377",
"Channel_info_start",
"Channel : Mg",
"Points : 0",
"Range : 0.000000 - 0.000000",
"Step : 0.010000",
"Channel_info_end",
"Channel_info_start",
"Channel : Al",
"Points : 0",
"Range : 0.000000 - 0.000000",
"Step : 0.010000",
"Channel_info_end",
"Channel_info_start",
"Channel : Si",
"Points : 0",
"Range : 0.000000 - 0.000000",
"Step : 0.010000",
"Channel_info_end",
"Channel_info_start",
"Channel : P ",
"Points : 0",
"Range : 0.000000 - 0.000000",
"Step : 0.010000",
"Channel_info_end",
"Channel_info_start",
"Channel : S ",
"Points : 0",
"Range : 0.000000 - 0.000000",
"Step : 0.010000",
"Channel_info_end",
"Channel_info_start",
"Channel : Cl",
"Points : 0",
"Range : 0.000000 - 0.000000",
"Step : 0.010000",
"Channel_info_end",
"Channel_info_start",
"Channel : K ",
"Points : 0",
"Range : 0.000000 - 0.000000",
"Step : 0.010000",
"Channel_info_end",
"Channel_info_start",
"Channel : Ca",
"Points : 0",
"Range : 0.000000 - 0.000000",
"Step : 0.010000",
"Channel_info_end",
"Channel_info_start",
"Channel : Ti",
"Points : 0",
"Range : 0.000000 - 0.000000",
"Step : 0.010000",
"Channel_info_end",
"Channel_info_start",
"Channel : V ",
"Points : 0",
"Range : 0.000000 - 0.000000",
"Step : 0.010000",
"Channel_info_end",
"Channel_info_start",
"Channel : Cr",
"Points : 0",
"Range : 0.000000 - 0.000000",
"Step : 0.010000",
"Channel_info_end",
"Channel_info_start",
"Channel : Mn",
"Points : 0",
"Range : 0.000000 - 0.000000",
"Step : 0.010000",
"Channel_info_end",
"Channel_info_start",
"Channel : Fe",
"Points : 0",
"Range : 0.000000 - 0.000000",
"Step : 0.010000",
"Channel_info_end",
"Channel_info_start",
"Channel : Cu",
"Points : 0",
"Range : 0.000000 - 0.000000",
"Step : 0.010000",
"Channel_info_end",
"Channel_info_start",
"Channel : Zn",
"Points : 0",
"Range : 0.000000 - 0.000000",
"Step : 0.010000",
"Channel_info_end",
"Channel_info_start",
"Channel : Sr",
"Points : 0",
"Range : 0.000000 - 0.000000",
"Step : 0.010000",
"Channel_info_end",
"Channel_info_start",
"Channel : Pb",
"Points : 0",
"Range : 0.000000 - 0.000000",
"Step : 0.010000",
"Channel_info_end",
"",
"Qualitative Result",
"--------------------------------------------------------------------------------",
"Element :  Mg, P , Ca, Ru",
"",
"Peak List",
"--------------------------------------------------------------------------------",
"Channel               Line        keV     Net Int.(cps/uA)",
"--------------------------------------------------------------------------------",
"Na                    MgKa         1.26     0.113",
"                      P Ka         2.01     0.012",
"                      CaKa         3.68     0.168",
"                      CaKb         4.00     0.021",
"                      ----         8.64     0.019",
"                      RuKa        19.19     0.133",
"                      ----        19.41     0.070",
"--------------------------------------------------------------------------------",
"",
"Quantitative Result",
"--------------------------------------------------------------------------------",
"Analyte               Result             Std.Dev. Proc.-Calc. Line Intensity(cps/uA)",
"--------------------------------------------------------------------------------",
"====[No. 1 Layer]====< Layer1               >===============================",
"Layer1                   0.000 ug/cm2    -------- Flux       -------- --------",