File: inputs/edxCalibration/edx_raw/2010/junho/MoO3 31507.20100626140433.csv
"Sample    : MoO3 31507",
"Operator  : thiago",
"Comment  : cubatao-g-policarbonato",
"Group     : kerr2007ag180cal_lt",
"Date       : 2010-06-26 14:00:31",
"",
"Mesurement Condition",
"------------------------------------------------------------------------------------",
"Instrument : 700HS2   Atmosphere : Vac.   Collimator : 10(mm)   Spin : No",
"------------------------------------------------------------------------------------",
"Analyte               TG kV   uA      FI Acq.(keV)  Anal.(keV)  Time(sec)     DT(%)",
"------------------------------------------------------------------------------------",
"Na                    Rh 50  210-Auto Al  0 - 20    0.8 - 1.2   Live -  179   14",
"",
"<Profile>",
"Channel_info_start",
"Channel : Na",
"Points : 2048",
"Range : 0.000000 - 20.48",
"Step : 0.010000",
"Channel_info_end",
"0",
"0",
"0",
"0",
"0",
"0",
"0",
"0",
"0",
"0",
"0",
"0",
"0",
"0",
"0",
"16",
"38",
"30",
"45",
"33",
"34",
"38",
"43",
"41",
"50",
"56",
"64",
"57",
"77",
"61",
"67",
"51",
"60",
"66",
"64",
"46",
"50",
"47",
"59",
"37",
"38",
"55",
"54",
"50",
"53",
"38",
"40",
"42",
"58",
"45",
"52",
"53",
"32",
"60",
"37",
"46",
"38",
"43",
"45",
"41",
"41",
"38",
"34",
"36",
"41",
"38",
"29",
"31",
"23",
"30",
"27",
"36",
"28",
"36",
"28",
"27",
"25",
"33",
"23",
"24",
"25",
"25",
"29",
"31",
"40",
"32",
"30",
"32",
"26",
"40",
"30",
"39",
"43",
"51",
"68",
"62",
"89",
"94",
"121",
"159",
"210",
"227",
"221",
"192",
"152",
"140",
"132",
"141",
"157",
"212",
"321",
"595",
"1012",
"1350",
"1901",
"1954",
"2020",
"1706",
"1494",
"1359",
"1173",
"1071",
"889",
"679",
"559",
"415",
"316",
"216",
"152",
"145",
"91",
"101",
"88",
"81",
"76",
"50",
"45",
"53",
"39",
"56",
"70",
"57",
"64",
"69",
"52",
"51",
"30",
"26",
"33",
"16",
"26",
"20",
"23",
"28",
"25",
"24",
"13",
"30",
"20",
"15",
"26",
"20",
"29",
"28",
"24",
"27",
"22",
"27",
"24",
"18",
"20",
"32",
"28",
"24",
"47",
"34",
"30",
"48",
"75",
"118",
"227",
"385",
"537",
"688",
"836",
"860",
"669",
"596",
"395",
"248",
"144",
"93",
"64",
"48",
"53",
"50",
"66",
"68",
"103",
"90",
"138",
"124",
"101",
"97",
"64",
"69",
"52",
"42",
"45",
"29",
"29",
"27",
"30",
"34",
"27",
"27",
"33",
"38",
"31",
"44",
"50",
"53",
"51",
"43",
"43",
"43",
"60",
"42",
"65",
"51",
"46",
"53",
"46",
"39",
"59",
"50",
"51",
"41",
"48",
"37",
"64",
"43",
"53",
"45",
"45",
"38",
"34",
"42",
"33",
"42",
"54",
"47",
"57",
"47",
"45",
"46",
"39",
"44",
"45",
"41",
"48",
"32",
"50",
"33",
"43",
"46",
"56",
"40",
"50",
"58",
"43",
"50",
"65",
"46",
"47",
"46",
"39",
"44",
"50",
"73",
"48",
"69",
"51",
"55",
"61",
"45",
"53",
"46",
"52",
"45",
"62",
"59",
"73",
"60",
"57",
"45",
"58",
"59",
"54",
"54",
"54",
"84",
"68",
"54",
"76",
"74",
"66",
"83",
"71",
"67",
"80",
"81",
"73",
"73",
"71",
"82",
"84",
"83",
"86",
"82",
"95",
"85",
"84",
"79",
"96",
"69",
"88",
"68",
"75",
"58",
"85",
"95",
"77",
"70",
"76",
"89",
"94",
"79",
"91",
"80",
"83",
"88",
"83",
"87",
"83",
"76",
"99",
"98",
"96",
"84",
"91",
"96",
"75",
"100",
"91",
"94",
"75",
"95",
"85",
"88",
"91",
"84",
"107",
"85",
"86",
"76",
"99",
"87",
"95",
"83",
"96",
"88",
"95",
"75",
"93",
"94",
"96",
"75",
"96",
"94",
"81",
"88",
"79",
"87",
"98",
"75",
"77",
"69",
"88",
"80",
"107",
"80",
"95",
"89",
"81",
"82",
"118",
"104",
"110",
"90",
"126",
"141",
"118",
"132",
"116",
"95",
"112",
"98",
"87",
"74",
"79",
"110",
"81",
"83",
"82",
"90",
"90",
"87",
"69",
"83",
"91",
"76",
"85",
"81",
"103",
"96",
"89",
"112",
"125",
"107",
"138",
"140",
"136",
"130",
"136",
"121",
"116",
"114",
"97",
"111",
"104",
"102",
"97",
"80",
"95",
"91",
"83",
"90",
"86",
"75",
"85",
"94",
"94",
"81",
"83",
"90",
"88",
"96",
"76",
"81",
"71",
"80",
"95",
"79",
"108",
"75",
"87",
"83",
"77",
"91",
"96",
"91",
"107",
"101",
"81",
"90",
"91",
"103",
"89",
"94",
"76",
"95",
"85",
"90",
"83",
"82",
"73",
"69",
"86",
"79",
"93",
"116",
"85",
"81",
"69",
"83",
"94",
"75",
"73",
"81",
"98",
"88",
"74",
"98",
"86",
"84",
"72",
"73",
"97",
"84",
"85",
"84",
"99",
"99",
"79",
"80",
"83",
"72",
"85",
"73",
"85",
"88",
"76",
"89",
"101",
"87",
"87",
"68",
"86",
"84",
"86",
"93",
"77",
"73",
"71",
"81",
"73",
"79",
"83",
"73",
"69",
"76",
"67",
"70",
"85",
"89",
"76",
"81",
"79",
"84",
"90",
"82",
"80",
"99",
"89",
"82",
"77",
"57",
"93",
"88",
"76",
"82",
"89",
"73",
"69",
"68",
"74",
"71",
"70",
"74",
"83",
"69",
"77",
"76",
"86",
"87",
"80",
"68",
"95",
"75",
"73",
"66",
"87",
"93",
"67",
"76",
"77",
"70",
"83",
"56",
"77",
"70",
"91",
"66",
"72",
"79",
"72",
"66",
"65",
"74",
"80",
"75",
"85",
"82",
"82",
"79",
"65",
"70",
"64",
"70",
"77",
"86",
"74",
"70",
"82",
"69",
"79",
"75",
"69",
"88",
"68",
"55",
"72",
"70",
"64",
"67",
"75",
"76",
"70",
"80",
"61",
"79",
"60",
"60",
"66",
"77",
"81",
"71",
"65",
"84",
"75",
"69",
"65",
"90",
"89",
"80",
"64",
"61",
"82",
"72",
"73",
"75",
"70",
"66",
"91",
"68",
"72",
"84",
"57",
"61",
"71",
"68",
"68",
"80",
"80",
"69",
"69",
"54",
"64",
"61",
"72",
"65",
"64",
"60",
"72",
"56",
"61",
"70",
"77",
"61",
"65",
"84",
"80",
"65",
"58",
"75",
"64",
"69",
"72",
"76",
"76",
"65",
"51",
"62",
"82",
"77",
"75",
"65",
"59",
"60",
"65",
"67",
"87",
"79",
"77",
"67",
"60",
"56",
"74",
"57",
"74",
"52",
"64",
"62",
"61",
"60",
"66",
"68",
"70",
"55",
"75",
"48",
"61",
"66",
"69",
"59",
"76",
"48",
"61",
"57",
"55",
"75",
"55",
"59",
"58",
"60",
"71",
"54",
"70",
"52",
"68",
"53",
"66",
"56",
"46",
"47",
"58",
"51",
"57",
"73",
"60",
"62",
"74",
"60",
"60",
"58",
"69",
"59",
"72",
"57",
"68",
"61",
"69",
"45",
"64",
"57",
"56",
"51",
"74",
"53",
"74",
"56",
"70",
"58",
"48",
"48",
"58",
"54",
"61",
"64",
"69",
"53",
"68",
"61",
"67",
"62",
"67",
"67",
"57",
"58",
"60",
"72",
"68",
"57",
"58",
"67",
"62",
"74",
"52",
"62",
"54",
"57",
"66",
"59",
"69",
"59",
"57",
"68",
"60",
"58",
"72",
"62",
"65",
"68",
"64",
"71",
"77",
"71",
"81",
"57",
"56",
"74",
"84",
"60",
"64",
"69",
"64",
"70",
"81",
"71",
"72",
"89",
"87",
"87",
"82",
"85",
"112",
"82",
"79",
"80",
"95",
"84",
"77",
"107",
"101",
"94",
"101",
"110",
"119",
"127",
"127",
"151",
"206",
"206",
"319",
"382",
"618",
"777",
"1145",
"1538",
"2175",
"2825",
"3696",
"4530",
"6026",
"6646",
"8039",
"8899",
"10301",
"10866",
"11868",
"12083",
"12587",
"11772",
"11734",
"10732",
"10014",
"8632",
"7982",
"6394",
"5595",
"4132",
"3329",
"2431",
"1837",
"1229",
"909",
"551",
"441",
"252",
"183",
"154",
"116",
"97",
"80",
"62",
"85",
"69",
"65",
"57",
"53",
"69",
"50",
"67",
"69",
"65",
"73",
"62",
"51",
"60",
"68",
"69",
"64",
"70",
"80",
"79",
"59",
"57",
"67",
"70",
"83",
"56",
"56",
"66",
"64",
"79",
"67",
"77",
"91",
"71",
"98",
"80",
"93",
"95",
"105",
"116",
"96",
"123",
"116",
"123",
"140",
"153",
"174",
"156",
"192",
"186",
"201",
"223",
"242",
"231",
"237",
"239",
"278",
"270",
"327",
"345",
"328",
"376",
"362",
"336",
"372",
"345",
"359",
"401",
"415",
"406",
"490",
"563",
"626",
"705",
"903",
"1053",
"1282",
"1366",
"1655",
"1863",
"1986",
"2118",
"2246",
"2113",
"2146",
"2071",
"1990",
"1792",
"1638",
"1425",
"1312",
"1048",
"967",
"792",
"704",
"584",
"584",
"477",
"497",
"424",
"486",
"420",
"429",
"441",
"422",
"367",
"349",
"297",
"281",
"204",
"241",
"200",
"185",
"163",
"133",
"100",
"96",
"74",
"90",
"82",
"61",
"48",
"48",
"38",
"53",
"44",
"45",
"39",
"22614",
"Channel_info_start",
"Channel : Mg",
"Points : 0",
"Range : 0.000000 - 0.000000",
"Step : 0.010000",
"Channel_info_end",
"Channel_info_start",
"Channel : Al",
"Points : 0",
"Range : 0.000000 - 0.000000",
"Step : 0.010000",
"Channel_info_end",
"Channel_info_start",
"Channel : Si",
"Points : 0",
"Range : 0.000000 - 0.000000",
"Step : 0.010000",
"Channel_info_end",
"Channel_info_start",
"Channel : P ",
"Points : 0",
"Range : 0.000000 - 0.000000",
"Step : 0.010000",
"Channel_info_end",
"Channel_info_start",
"Channel : S ",
"Points : 0",
"Range : 0.000000 - 0.000000",
"Step : 0.010000",
"Channel_info_end",
"Channel_info_start",
"Channel : Cl",
"Points : 0",
"Range : 0.000000 - 0.000000",
"Step : 0.010000",
"Channel_info_end",
"Channel_info_start",
"Channel : K ",
"Points : 0",
"Range : 0.000000 - 0.000000",
"Step : 0.010000",
"Channel_info_end",
"Channel_info_start",
"Channel : Ca",
"Points : 0",
"Range : 0.000000 - 0.000000",
"Step : 0.010000",
"Channel_info_end",
"Channel_info_start",
"Channel : Ti",
"Points : 0",
"Range : 0.000000 - 0.000000",
"Step : 0.010000",
"Channel_info_end",
"Channel_info_start",
"Channel : V ",
"Points : 0",
"Range : 0.000000 - 0.000000",
"Step : 0.010000",
"Channel_info_end",
"Channel_info_start",
"Channel : Cr",
"Points : 0",
"Range : 0.000000 - 0.000000",
"Step : 0.010000",
"Channel_info_end",
"Channel_info_start",
"Channel : Mn",
"Points : 0",
"Range : 0.000000 - 0.000000",
"Step : 0.010000",
"Channel_info_end",
"Channel_info_start",
"Channel : Fe",
"Points : 0",
"Range : 0.000000 - 0.000000",
"Step : 0.010000",
"Channel_info_end",
"Channel_info_start",
"Channel : Cu",
"Points : 0",
"Range : 0.000000 - 0.000000",
"Step : 0.010000",
"Channel_info_end",
"Channel_info_start",
"Channel : Zn",
"Points : 0",
"Range : 0.000000 - 0.000000",
"Step : 0.010000",
"Channel_info_end",
"Channel_info_start",
"Channel : Sr",
"Points : 0",
"Range : 0.000000 - 0.000000",
"Step : 0.010000",
"Channel_info_end",
"Channel_info_start",
"Channel : Pb",
"Points : 0",
"Range : 0.000000 - 0.000000",
"Step : 0.010000",
"Channel_info_end",
"",
"Qualitative Result",
"--------------------------------------------------------------------------------",
"Element :  P , Mo, Ca",
"",
"Peak List",
"--------------------------------------------------------------------------------",
"Channel               Line        keV     Net Int.(cps/uA)",
"--------------------------------------------------------------------------------",
"Na                    ----         0.55     0.010",
"                      P Ka         2.01     0.058",
"                      MoLa         2.30     0.638",
"                      ----         2.42     0.333",
"                      CaKa         3.69     0.302",
"                      CaKb         4.00     0.039",
"                      MoKa        17.44     7.231",
"                      MoKb        19.60     1.141",
"                      ----        19.98     0.138",
"--------------------------------------------------------------------------------",
"",
"Quantitative Result",
"--------------------------------------------------------------------------------",
"Analyte               Result             Std.Dev. Proc.-Calc. Line Intensity(cps/uA)",
"--------------------------------------------------------------------------------",
"====[No. 1 Layer]====< Layer1               >===============================",
"Layer1                   0.000 ug/cm2    -------- Flux       -------- --------",