File: inputs/edxCalibration/edx_raw/2010/junho/MoO3 15764.20100525234538.csv
"Sample    : MoO3 15764",
"Operator  : luisf",
"Comment  : cubatao-g-policarbonato",
"Group     : kerr2007ag180cal_lt",
"Date       : 2010-05-25 23:41:36",
"",
"Mesurement Condition",
"------------------------------------------------------------------------------------",
"Instrument : 700HS2   Atmosphere : Vac.   Collimator : 10(mm)   Spin : No",
"------------------------------------------------------------------------------------",
"Analyte               TG kV   uA      FI Acq.(keV)  Anal.(keV)  Time(sec)     DT(%)",
"------------------------------------------------------------------------------------",
"Na                    Rh 50  210-Auto Al  0 - 20    0.8 - 1.2   Live -  179   14",
"",
"<Profile>",
"Channel_info_start",
"Channel : Na",
"Points : 2048",
"Range : 0.000000 - 20.48",
"Step : 0.010000",
"Channel_info_end",
"0",
"0",
"0",
"0",
"0",
"0",
"0",
"0",
"0",
"0",
"0",
"0",
"0",
"0",
"1",
"17",
"46",
"39",
"33",
"37",
"34",
"44",
"52",
"54",
"61",
"69",
"74",
"79",
"74",
"98",
"84",
"65",
"43",
"70",
"62",
"68",
"54",
"56",
"54",
"45",
"45",
"43",
"42",
"56",
"44",
"57",
"48",
"32",
"52",
"56",
"44",
"50",
"47",
"36",
"54",
"59",
"50",
"46",
"39",
"45",
"39",
"28",
"43",
"43",
"40",
"41",
"34",
"46",
"33",
"26",
"26",
"32",
"29",
"31",
"37",
"29",
"47",
"26",
"25",
"36",
"29",
"32",
"30",
"37",
"34",
"27",
"28",
"39",
"52",
"28",
"46",
"53",
"62",
"55",
"85",
"82",
"96",
"122",
"185",
"208",
"238",
"249",
"236",
"229",
"187",
"179",
"182",
"192",
"212",
"294",
"535",
"884",
"1453",
"2003",
"2570",
"2695",
"2712",
"2317",
"2112",
"1794",
"1603",
"1344",
"1157",
"877",
"712",
"530",
"418",
"303",
"220",
"158",
"126",
"103",
"97",
"79",
"74",
"57",
"39",
"47",
"40",
"58",
"55",
"74",
"60",
"55",
"42",
"46",
"45",
"36",
"33",
"27",
"28",
"13",
"20",
"23",
"18",
"20",
"26",
"20",
"16",
"16",
"14",
"18",
"19",
"25",
"22",
"14",
"36",
"23",
"31",
"24",
"27",
"17",
"18",
"15",
"29",
"33",
"30",
"48",
"52",
"113",
"165",
"249",
"362",
"405",
"462",
"457",
"396",
"322",
"199",
"132",
"97",
"71",
"47",
"45",
"38",
"41",
"45",
"50",
"75",
"60",
"82",
"82",
"85",
"61",
"54",
"51",
"37",
"45",
"30",
"38",
"24",
"26",
"39",
"29",
"31",
"32",
"45",
"43",
"31",
"47",
"43",
"44",
"36",
"47",
"60",
"40",
"80",
"44",
"47",
"46",
"39",
"51",
"41",
"42",
"48",
"67",
"53",
"44",
"43",
"53",
"37",
"43",
"50",
"36",
"29",
"41",
"42",
"57",
"60",
"39",
"41",
"42",
"50",
"46",
"38",
"50",
"36",
"41",
"45",
"42",
"37",
"50",
"43",
"32",
"46",
"56",
"42",
"50",
"53",
"51",
"48",
"46",
"48",
"56",
"55",
"62",
"53",
"54",
"52",
"43",
"45",
"64",
"62",
"51",
"59",
"54",
"45",
"47",
"46",
"59",
"58",
"68",
"46",
"42",
"71",
"57",
"60",
"68",
"58",
"44",
"59",
"57",
"67",
"64",
"84",
"51",
"83",
"65",
"62",
"58",
"69",
"88",
"71",
"79",
"71",
"74",
"69",
"62",
"85",
"89",
"94",
"62",
"70",
"85",
"73",
"88",
"84",
"80",
"85",
"76",
"80",
"69",
"87",
"97",
"82",
"80",
"87",
"84",
"80",
"89",
"106",
"73",
"76",
"86",
"82",
"67",
"101",
"88",
"111",
"86",
"89",
"97",
"99",
"78",
"83",
"89",
"90",
"76",
"92",
"86",
"83",
"79",
"83",
"96",
"73",
"88",
"92",
"71",
"83",
"90",
"99",
"88",
"74",
"74",
"87",
"76",
"85",
"75",
"110",
"84",
"90",
"90",
"98",
"103",
"100",
"73",
"98",
"76",
"79",
"97",
"92",
"99",
"93",
"90",
"108",
"99",
"98",
"98",
"100",
"112",
"121",
"103",
"121",
"108",
"96",
"103",
"108",
"94",
"108",
"106",
"98",
"95",
"76",
"76",
"95",
"85",
"66",
"67",
"71",
"87",
"86",
"87",
"99",
"104",
"97",
"103",
"100",
"104",
"112",
"124",
"139",
"130",
"132",
"112",
"120",
"124",
"115",
"104",
"109",
"121",
"99",
"86",
"94",
"100",
"94",
"76",
"76",
"103",
"96",
"109",
"85",
"102",
"93",
"93",
"88",
"96",
"85",
"94",
"84",
"92",
"82",
"70",
"84",
"90",
"81",
"82",
"67",
"87",
"81",
"79",
"70",
"80",
"82",
"99",
"100",
"61",
"90",
"92",
"81",
"76",
"100",
"85",
"96",
"98",
"96",
"72",
"73",
"87",
"84",
"88",
"81",
"82",
"90",
"65",
"83",
"89",
"99",
"79",
"87",
"76",
"85",
"78",
"88",
"80",
"86",
"58",
"85",
"103",
"87",
"80",
"90",
"81",
"76",
"70",
"88",
"67",
"86",
"99",
"75",
"83",
"75",
"78",
"71",
"68",
"90",
"74",
"84",
"75",
"81",
"97",
"89",
"84",
"79",
"71",
"85",
"75",
"84",
"83",
"82",
"69",
"86",
"80",
"80",
"78",
"68",
"67",
"96",
"78",
"74",
"68",
"93",
"85",
"84",
"71",
"76",
"67",
"75",
"84",
"68",
"84",
"83",
"67",
"82",
"64",
"84",
"81",
"74",
"96",
"64",
"71",
"66",
"70",
"76",
"65",
"82",
"84",
"62",
"67",
"73",
"62",
"67",
"62",
"78",
"75",
"67",
"65",
"71",
"79",
"83",
"80",
"85",
"81",
"72",
"83",
"76",
"88",
"73",
"79",
"76",
"66",
"67",
"74",
"68",
"71",
"69",
"58",
"92",
"74",
"94",
"74",
"81",
"60",
"74",
"64",
"84",
"64",
"86",
"65",
"70",
"76",
"66",
"84",
"67",
"96",
"68",
"67",
"89",
"80",
"81",
"62",
"86",
"86",
"52",
"62",
"66",
"66",
"93",
"75",
"68",
"71",
"65",
"69",
"72",
"65",
"59",
"68",
"71",
"67",
"80",
"66",
"69",
"74",
"62",
"68",
"67",
"65",
"70",
"72",
"54",
"61",
"75",
"71",
"82",
"72",
"72",
"65",
"71",
"54",
"66",
"65",
"80",
"71",
"76",
"58",
"75",
"87",
"69",
"71",
"83",
"65",
"66",
"70",
"68",
"64",
"85",
"75",
"72",
"62",
"73",
"74",
"52",
"69",
"65",
"47",
"80",
"72",
"68",
"67",
"66",
"55",
"70",
"67",
"69",
"65",
"75",
"73",
"62",
"64",
"57",
"72",
"72",
"58",
"68",
"59",
"70",
"56",
"79",
"65",
"53",
"73",
"52",
"58",
"69",
"68",
"61",
"70",
"64",
"71",
"72",
"52",
"67",
"59",
"59",
"66",
"57",
"67",
"69",
"67",
"64",
"55",
"51",
"64",
"75",
"65",
"51",
"55",
"60",
"65",
"76",
"69",
"62",
"71",
"69",
"62",
"62",
"65",
"54",
"66",
"56",
"60",
"65",
"56",
"57",
"67",
"67",
"71",
"62",
"57",
"57",
"61",
"55",
"65",
"64",
"53",
"64",
"64",
"62",
"60",
"66",
"62",
"76",
"56",
"55",
"85",
"62",
"86",
"65",
"66",
"58",
"81",
"70",
"61",
"71",
"53",
"78",
"62",
"58",
"60",
"72",
"53",
"56",
"64",
"59",
"61",
"65",
"74",
"55",
"56",
"67",
"75",
"68",
"70",
"72",
"52",
"56",
"81",
"75",
"73",
"59",
"68",
"53",
"70",
"65",
"66",
"78",
"65",
"72",
"53",
"67",
"73",
"67",
"73",
"79",
"78",
"68",
"67",
"82",
"83",
"82",
"96",
"90",
"108",
"108",
"92",
"100",
"106",
"100",
"96",
"112",
"126",
"143",
"152",
"188",
"253",
"385",
"512",
"723",
"896",
"1363",
"1896",
"2499",
"3095",
"4252",
"5189",
"6564",
"7337",
"8516",
"9278",
"10487",
"11167",
"12002",
"12007",
"12203",
"11345",
"11113",
"10101",
"9472",
"7863",
"6996",
"5630",
"4855",
"3476",
"2683",
"1982",
"1413",
"991",
"667",
"444",
"313",
"265",
"165",
"114",
"110",
"88",
"97",
"73",
"62",
"67",
"69",
"59",
"72",
"67",
"68",
"68",
"72",
"76",
"58",
"79",
"61",
"64",
"64",
"56",
"75",
"61",
"59",
"67",
"65",
"57",
"83",
"58",
"64",
"60",
"56",
"57",
"78",
"84",
"82",
"78",
"82",
"96",
"98",
"90",
"97",
"106",
"79",
"85",
"127",
"130",
"120",
"115",
"126",
"172",
"165",
"163",
"199",
"192",
"207",
"229",
"238",
"254",
"323",
"291",
"298",
"309",
"327",
"311",
"395",
"307",
"394",
"375",
"403",
"396",
"377",
"354",
"456",
"441",
"553",
"599",
"680",
"773",
"996",
"1146",
"1345",
"1481",
"1759",
"1838",
"2169",
"2057",
"2166",
"2160",
"2153",
"1942",
"1903",
"1675",
"1523",
"1323",
"1121",
"991",
"878",
"738",
"654",
"535",
"541",
"486",
"522",
"467",
"442",
"448",
"449",
"400",
"386",
"308",
"289",
"250",
"253",
"219",
"183",
"157",
"130",
"128",
"140",
"98",
"106",
"78",
"80",
"68",
"53",
"43",
"56",
"48",
"40",
"53",
"50",
"47",
"22782",
"Channel_info_start",
"Channel : Mg",
"Points : 0",
"Range : 0.000000 - 0.000000",
"Step : 0.010000",
"Channel_info_end",
"Channel_info_start",
"Channel : Al",
"Points : 0",
"Range : 0.000000 - 0.000000",
"Step : 0.010000",
"Channel_info_end",
"Channel_info_start",
"Channel : Si",
"Points : 0",
"Range : 0.000000 - 0.000000",
"Step : 0.010000",
"Channel_info_end",
"Channel_info_start",
"Channel : P ",
"Points : 0",
"Range : 0.000000 - 0.000000",
"Step : 0.010000",
"Channel_info_end",
"Channel_info_start",
"Channel : S ",
"Points : 0",
"Range : 0.000000 - 0.000000",
"Step : 0.010000",
"Channel_info_end",
"Channel_info_start",
"Channel : Cl",
"Points : 0",
"Range : 0.000000 - 0.000000",
"Step : 0.010000",
"Channel_info_end",
"Channel_info_start",
"Channel : K ",
"Points : 0",
"Range : 0.000000 - 0.000000",
"Step : 0.010000",
"Channel_info_end",
"Channel_info_start",
"Channel : Ca",
"Points : 0",
"Range : 0.000000 - 0.000000",
"Step : 0.010000",
"Channel_info_end",
"Channel_info_start",
"Channel : Ti",
"Points : 0",
"Range : 0.000000 - 0.000000",
"Step : 0.010000",
"Channel_info_end",
"Channel_info_start",
"Channel : V ",
"Points : 0",
"Range : 0.000000 - 0.000000",
"Step : 0.010000",
"Channel_info_end",
"Channel_info_start",
"Channel : Cr",
"Points : 0",
"Range : 0.000000 - 0.000000",
"Step : 0.010000",
"Channel_info_end",
"Channel_info_start",
"Channel : Mn",
"Points : 0",
"Range : 0.000000 - 0.000000",
"Step : 0.010000",
"Channel_info_end",
"Channel_info_start",
"Channel : Fe",
"Points : 0",
"Range : 0.000000 - 0.000000",
"Step : 0.010000",
"Channel_info_end",
"Channel_info_start",
"Channel : Cu",
"Points : 0",
"Range : 0.000000 - 0.000000",
"Step : 0.010000",
"Channel_info_end",
"Channel_info_start",
"Channel : Zn",
"Points : 0",
"Range : 0.000000 - 0.000000",
"Step : 0.010000",
"Channel_info_end",
"Channel_info_start",
"Channel : Sr",
"Points : 0",
"Range : 0.000000 - 0.000000",
"Step : 0.010000",
"Channel_info_end",
"Channel_info_start",
"Channel : Pb",
"Points : 0",
"Range : 0.000000 - 0.000000",
"Step : 0.010000",
"Channel_info_end",
"",
"Qualitative Result",
"--------------------------------------------------------------------------------",
"Element :  P , Mo, Ca",
"",
"Peak List",
"--------------------------------------------------------------------------------",
"Channel               Line        keV     Net Int.(cps/uA)",
"--------------------------------------------------------------------------------",
"Na                    ----         0.54     0.013",
"                      P Ka         2.02     0.061",
"                      MoLa         2.30     0.900",
"                      CaKa         3.68     0.162",
"                      CaKb         4.00     0.022",
"                      MoKa        17.42     6.988",
"                      MoKb        19.59     1.135",
"                      ----        19.97     0.130",
"--------------------------------------------------------------------------------",
"",
"Quantitative Result",
"--------------------------------------------------------------------------------",
"Analyte               Result             Std.Dev. Proc.-Calc. Line Intensity(cps/uA)",
"--------------------------------------------------------------------------------",
"====[No. 1 Layer]====< Layer1               >===============================",
"Layer1                   0.000 ug/cm2    -------- Flux       -------- --------",