File: inputs/edxCalibration/edx_raw/2010/junho/MoO3 15764.20100611022302.csv
"Sample    : MoO3 15764",
"Operator  : Luís",
"Comment  : cubatao-g-policarbonato",
"Group     : kerr2007ag180cal_lt",
"Date       : 2010-06-11 02:19:00",
"",
"Mesurement Condition",
"------------------------------------------------------------------------------------",
"Instrument : 700HS2   Atmosphere : Vac.   Collimator : 10(mm)   Spin : No",
"------------------------------------------------------------------------------------",
"Analyte               TG kV   uA      FI Acq.(keV)  Anal.(keV)  Time(sec)     DT(%)",
"------------------------------------------------------------------------------------",
"Na                    Rh 50  210-Auto Al  0 - 20    0.8 - 1.2   Live -  179   14",
"",
"<Profile>",
"Channel_info_start",
"Channel : Na",
"Points : 2048",
"Range : 0.000000 - 20.48",
"Step : 0.010000",
"Channel_info_end",
"0",
"0",
"0",
"0",
"0",
"0",
"0",
"0",
"0",
"0",
"0",
"0",
"0",
"0",
"0",
"23",
"29",
"32",
"44",
"30",
"42",
"44",
"43",
"34",
"58",
"62",
"76",
"82",
"90",
"92",
"69",
"69",
"87",
"68",
"57",
"64",
"50",
"39",
"62",
"55",
"42",
"42",
"54",
"51",
"57",
"48",
"37",
"40",
"36",
"62",
"40",
"51",
"55",
"52",
"52",
"51",
"55",
"53",
"51",
"37",
"48",
"48",
"40",
"44",
"38",
"38",
"43",
"32",
"46",
"39",
"45",
"29",
"43",
"45",
"29",
"27",
"30",
"27",
"34",
"33",
"31",
"31",
"32",
"24",
"43",
"31",
"30",
"42",
"43",
"50",
"59",
"51",
"62",
"58",
"71",
"68",
"97",
"103",
"170",
"192",
"226",
"241",
"236",
"284",
"191",
"177",
"198",
"188",
"219",
"284",
"476",
"804",
"1435",
"2075",
"2506",
"2800",
"2553",
"2259",
"2033",
"1759",
"1544",
"1369",
"1187",
"839",
"678",
"528",
"430",
"295",
"196",
"200",
"150",
"106",
"79",
"65",
"66",
"62",
"44",
"40",
"52",
"48",
"69",
"60",
"67",
"67",
"45",
"33",
"41",
"20",
"33",
"23",
"18",
"22",
"28",
"19",
"19",
"25",
"22",
"13",
"22",
"22",
"20",
"16",
"28",
"18",
"27",
"36",
"23",
"25",
"29",
"20",
"24",
"17",
"22",
"24",
"29",
"19",
"36",
"51",
"75",
"115",
"158",
"228",
"362",
"403",
"474",
"431",
"428",
"294",
"211",
"150",
"94",
"47",
"52",
"42",
"48",
"46",
"53",
"64",
"79",
"68",
"62",
"81",
"78",
"86",
"57",
"45",
"43",
"27",
"32",
"26",
"39",
"29",
"43",
"31",
"45",
"26",
"39",
"40",
"37",
"44",
"39",
"55",
"50",
"44",
"60",
"45",
"53",
"48",
"56",
"45",
"44",
"68",
"53",
"43",
"40",
"43",
"55",
"48",
"65",
"47",
"43",
"43",
"42",
"41",
"40",
"44",
"61",
"40",
"47",
"41",
"48",
"55",
"32",
"44",
"51",
"44",
"46",
"40",
"51",
"40",
"48",
"47",
"47",
"47",
"47",
"43",
"50",
"45",
"67",
"53",
"52",
"62",
"51",
"51",
"59",
"41",
"53",
"45",
"48",
"45",
"48",
"60",
"59",
"60",
"50",
"46",
"45",
"59",
"54",
"46",
"53",
"64",
"59",
"55",
"59",
"75",
"65",
"60",
"68",
"59",
"67",
"59",
"60",
"50",
"56",
"86",
"78",
"64",
"68",
"65",
"78",
"70",
"68",
"86",
"62",
"67",
"79",
"52",
"78",
"74",
"84",
"81",
"74",
"90",
"68",
"70",
"62",
"81",
"78",
"80",
"90",
"80",
"75",
"80",
"82",
"82",
"103",
"82",
"87",
"88",
"70",
"78",
"96",
"92",
"87",
"65",
"79",
"80",
"102",
"86",
"78",
"92",
"90",
"89",
"81",
"70",
"101",
"86",
"83",
"90",
"84",
"92",
"88",
"92",
"82",
"81",
"93",
"92",
"100",
"83",
"78",
"96",
"87",
"73",
"69",
"86",
"84",
"84",
"80",
"87",
"103",
"96",
"106",
"104",
"93",
"99",
"88",
"87",
"83",
"92",
"86",
"88",
"109",
"97",
"99",
"89",
"80",
"96",
"129",
"134",
"113",
"113",
"95",
"103",
"111",
"107",
"100",
"92",
"98",
"92",
"89",
"85",
"85",
"82",
"70",
"72",
"93",
"70",
"107",
"74",
"83",
"99",
"97",
"100",
"90",
"84",
"99",
"114",
"132",
"124",
"132",
"100",
"126",
"112",
"130",
"96",
"114",
"124",
"85",
"101",
"90",
"93",
"81",
"102",
"104",
"75",
"82",
"90",
"89",
"75",
"84",
"89",
"89",
"79",
"74",
"86",
"82",
"80",
"104",
"92",
"75",
"68",
"94",
"95",
"89",
"71",
"88",
"85",
"68",
"106",
"82",
"93",
"89",
"70",
"96",
"92",
"93",
"90",
"81",
"86",
"92",
"83",
"89",
"79",
"83",
"86",
"85",
"86",
"78",
"80",
"95",
"80",
"71",
"75",
"90",
"81",
"74",
"92",
"88",
"98",
"86",
"70",
"95",
"75",
"79",
"93",
"83",
"71",
"81",
"89",
"78",
"79",
"92",
"96",
"76",
"79",
"76",
"67",
"89",
"81",
"81",
"93",
"83",
"82",
"96",
"74",
"81",
"69",
"82",
"68",
"78",
"87",
"82",
"86",
"75",
"74",
"81",
"76",
"83",
"66",
"99",
"95",
"71",
"70",
"84",
"100",
"88",
"86",
"78",
"60",
"74",
"79",
"78",
"83",
"80",
"75",
"68",
"69",
"90",
"71",
"76",
"69",
"87",
"95",
"92",
"83",
"68",
"87",
"72",
"84",
"76",
"87",
"68",
"65",
"78",
"61",
"99",
"69",
"78",
"61",
"66",
"73",
"68",
"80",
"80",
"78",
"79",
"73",
"84",
"76",
"60",
"82",
"84",
"70",
"71",
"64",
"87",
"72",
"72",
"70",
"59",
"70",
"66",
"69",
"69",
"79",
"73",
"66",
"78",
"75",
"79",
"83",
"93",
"74",
"72",
"70",
"62",
"52",
"67",
"72",
"52",
"71",
"71",
"62",
"61",
"57",
"56",
"66",
"66",
"69",
"72",
"75",
"96",
"86",
"67",
"84",
"72",
"55",
"80",
"71",
"75",
"74",
"75",
"75",
"66",
"69",
"65",
"76",
"61",
"68",
"68",
"72",
"81",
"62",
"68",
"67",
"70",
"61",
"78",
"66",
"70",
"74",
"72",
"75",
"71",
"72",
"72",
"79",
"65",
"64",
"73",
"72",
"58",
"64",
"61",
"62",
"76",
"84",
"51",
"66",
"59",
"84",
"53",
"70",
"71",
"58",
"64",
"73",
"72",
"64",
"70",
"55",
"70",
"65",
"69",
"70",
"66",
"68",
"64",
"59",
"69",
"74",
"66",
"65",
"68",
"74",
"67",
"55",
"71",
"62",
"62",
"64",
"58",
"52",
"57",
"70",
"68",
"67",
"60",
"67",
"66",
"52",
"61",
"74",
"72",
"57",
"58",
"71",
"82",
"61",
"67",
"59",
"58",
"68",
"66",
"53",
"62",
"59",
"56",
"53",
"57",
"71",
"67",
"57",
"52",
"72",
"86",
"68",
"58",
"61",
"65",
"55",
"64",
"64",
"74",
"67",
"70",
"65",
"64",
"53",
"56",
"48",
"75",
"53",
"85",
"54",
"64",
"60",
"80",
"66",
"71",
"59",
"68",
"61",
"61",
"71",
"64",
"48",
"65",
"71",
"58",
"83",
"78",
"60",
"53",
"58",
"78",
"61",
"70",
"61",
"75",
"62",
"54",
"67",
"62",
"60",
"66",
"60",
"59",
"52",
"80",
"59",
"69",
"68",
"50",
"64",
"66",
"41",
"79",
"76",
"65",
"57",
"78",
"69",
"54",
"61",
"64",
"72",
"78",
"56",
"76",
"64",
"61",
"69",
"69",
"61",
"79",
"66",
"85",
"79",
"90",
"73",
"75",
"74",
"107",
"79",
"81",
"88",
"107",
"92",
"68",
"93",
"93",
"80",
"94",
"110",
"113",
"122",
"136",
"134",
"177",
"193",
"212",
"281",
"418",
"519",
"770",
"1107",
"1493",
"2028",
"2821",
"3399",
"4561",
"5339",
"7075",
"7409",
"8988",
"9784",
"11286",
"11007",
"11972",
"11620",
"11996",
"11451",
"10816",
"9700",
"9119",
"7428",
"6418",
"5252",
"4430",
"3130",
"2492",
"1733",
"1309",
"875",
"605",
"390",
"294",
"211",
"150",
"93",
"76",
"95",
"78",
"74",
"79",
"51",
"61",
"70",
"60",
"60",
"67",
"60",
"59",
"58",
"64",
"69",
"78",
"65",
"58",
"61",
"75",
"66",
"75",
"70",
"46",
"60",
"64",
"83",
"79",
"76",
"78",
"62",
"89",
"95",
"82",
"75",
"82",
"66",
"80",
"83",
"74",
"111",
"126",
"114",
"115",
"140",
"141",
"142",
"141",
"146",
"195",
"191",
"200",
"202",
"204",
"229",
"222",
"249",
"272",
"283",
"286",
"295",
"324",
"294",
"364",
"309",
"364",
"363",
"370",
"356",
"389",
"382",
"468",
"486",
"564",
"578",
"743",
"889",
"1054",
"1190",
"1385",
"1528",
"1859",
"1951",
"2130",
"2112",
"2184",
"2085",
"2111",
"1934",
"1791",
"1563",
"1524",
"1177",
"1076",
"906",
"746",
"647",
"612",
"552",
"574",
"491",
"498",
"454",
"464",
"460",
"411",
"358",
"368",
"303",
"300",
"238",
"243",
"200",
"152",
"181",
"154",
"118",
"98",
"104",
"95",
"74",
"60",
"78",
"61",
"45",
"54",
"37",
"36",
"48",
"31",
"41",
"22698",
"Channel_info_start",
"Channel : Mg",
"Points : 0",
"Range : 0.000000 - 0.000000",
"Step : 0.010000",
"Channel_info_end",
"Channel_info_start",
"Channel : Al",
"Points : 0",
"Range : 0.000000 - 0.000000",
"Step : 0.010000",
"Channel_info_end",
"Channel_info_start",
"Channel : Si",
"Points : 0",
"Range : 0.000000 - 0.000000",
"Step : 0.010000",
"Channel_info_end",
"Channel_info_start",
"Channel : P ",
"Points : 0",
"Range : 0.000000 - 0.000000",
"Step : 0.010000",
"Channel_info_end",
"Channel_info_start",
"Channel : S ",
"Points : 0",
"Range : 0.000000 - 0.000000",
"Step : 0.010000",
"Channel_info_end",
"Channel_info_start",
"Channel : Cl",
"Points : 0",
"Range : 0.000000 - 0.000000",
"Step : 0.010000",
"Channel_info_end",
"Channel_info_start",
"Channel : K ",
"Points : 0",
"Range : 0.000000 - 0.000000",
"Step : 0.010000",
"Channel_info_end",
"Channel_info_start",
"Channel : Ca",
"Points : 0",
"Range : 0.000000 - 0.000000",
"Step : 0.010000",
"Channel_info_end",
"Channel_info_start",
"Channel : Ti",
"Points : 0",
"Range : 0.000000 - 0.000000",
"Step : 0.010000",
"Channel_info_end",
"Channel_info_start",
"Channel : V ",
"Points : 0",
"Range : 0.000000 - 0.000000",
"Step : 0.010000",
"Channel_info_end",
"Channel_info_start",
"Channel : Cr",
"Points : 0",
"Range : 0.000000 - 0.000000",
"Step : 0.010000",
"Channel_info_end",
"Channel_info_start",
"Channel : Mn",
"Points : 0",
"Range : 0.000000 - 0.000000",
"Step : 0.010000",
"Channel_info_end",
"Channel_info_start",
"Channel : Fe",
"Points : 0",
"Range : 0.000000 - 0.000000",
"Step : 0.010000",
"Channel_info_end",
"Channel_info_start",
"Channel : Cu",
"Points : 0",
"Range : 0.000000 - 0.000000",
"Step : 0.010000",
"Channel_info_end",
"Channel_info_start",
"Channel : Zn",
"Points : 0",
"Range : 0.000000 - 0.000000",
"Step : 0.010000",
"Channel_info_end",
"Channel_info_start",
"Channel : Sr",
"Points : 0",
"Range : 0.000000 - 0.000000",
"Step : 0.010000",
"Channel_info_end",
"Channel_info_start",
"Channel : Pb",
"Points : 0",
"Range : 0.000000 - 0.000000",
"Step : 0.010000",
"Channel_info_end",
"",
"Qualitative Result",
"--------------------------------------------------------------------------------",
"Element :  P , Mo, Ca",
"",
"Peak List",
"--------------------------------------------------------------------------------",
"Channel               Line        keV     Net Int.(cps/uA)",
"--------------------------------------------------------------------------------",
"Na                    ----         0.55     0.015",
"                      ----         0.64     0.015",
"                      P Ka         2.02     0.062",
"                      MoLa         2.30     0.914",
"                      ----         2.43     0.401",
"                      CaKa         3.68     0.165",
"                      CaKb         4.02     0.020",
"                      MoKa        17.44     7.004",
"                      MoKb        19.53     1.120",
"                      ----        19.93     0.160",
"--------------------------------------------------------------------------------",
"",
"Quantitative Result",
"--------------------------------------------------------------------------------",
"Analyte               Result             Std.Dev. Proc.-Calc. Line Intensity(cps/uA)",
"--------------------------------------------------------------------------------",
"====[No. 1 Layer]====< Layer1               >===============================",
"Layer1                   0.000 ug/cm2    -------- Flux       -------- --------",