File: inputs/edxCalibration/edx_raw/2010/junho/NaCl 15750.20100611004357.csv
"Sample    : NaCl 15750",
"Operator  : thiago",
"Comment  : cubatao-g-policarbonato",
"Group     : kerr2007ag180cal_lt",
"Date       : 2010-06-11 00:39:46",
"",
"Mesurement Condition",
"------------------------------------------------------------------------------------",
"Instrument : 700HS2   Atmosphere : Vac.   Collimator : 10(mm)   Spin : No",
"------------------------------------------------------------------------------------",
"Analyte               TG kV   uA      FI Acq.(keV)  Anal.(keV)  Time(sec)     DT(%)",
"------------------------------------------------------------------------------------",
"Na                    Rh 50  802-Auto Al  0 - 20    0.8 - 1.2   Live -  179   15",
"",
"<Profile>",
"Channel_info_start",
"Channel : Na",
"Points : 2048",
"Range : 0.000000 - 20.48",
"Step : 0.010000",
"Channel_info_end",
"0",
"0",
"0",
"0",
"0",
"0",
"0",
"0",
"0",
"0",
"0",
"0",
"0",
"0",
"0",
"10",
"52",
"35",
"40",
"48",
"40",
"47",
"45",
"38",
"46",
"36",
"46",
"39",
"49",
"35",
"48",
"55",
"44",
"54",
"50",
"41",
"47",
"53",
"70",
"80",
"87",
"149",
"211",
"240",
"290",
"262",
"201",
"137",
"145",
"150",
"207",
"240",
"257",
"280",
"194",
"174",
"89",
"69",
"70",
"44",
"63",
"60",
"58",
"48",
"54",
"41",
"53",
"41",
"51",
"52",
"48",
"36",
"54",
"48",
"58",
"50",
"57",
"46",
"45",
"49",
"41",
"42",
"61",
"42",
"49",
"37",
"59",
"63",
"57",
"62",
"53",
"58",
"45",
"61",
"77",
"70",
"102",
"111",
"131",
"187",
"233",
"172",
"195",
"196",
"135",
"137",
"131",
"142",
"135",
"175",
"158",
"186",
"223",
"219",
"260",
"287",
"238",
"282",
"308",
"305",
"296",
"330",
"353",
"418",
"614",
"1071",
"2079",
"3912",
"6939",
"10107",
"12751",
"13794",
"13352",
"10841",
"7821",
"4665",
"2489",
"1466",
"1197",
"1178",
"1364",
"1302",
"1276",
"946",
"663",
"394",
"189",
"101",
"75",
"48",
"47",
"33",
"37",
"38",
"27",
"28",
"30",
"37",
"49",
"32",
"52",
"38",
"42",
"41",
"51",
"37",
"45",
"49",
"47",
"34",
"39",
"55",
"51",
"37",
"53",
"84",
"120",
"141",
"266",
"413",
"645",
"990",
"1275",
"1645",
"1790",
"1811",
"1591",
"1338",
"874",
"571",
"355",
"211",
"189",
"161",
"148",
"138",
"169",
"184",
"213",
"275",
"264",
"273",
"262",
"204",
"171",
"134",
"114",
"92",
"87",
"69",
"53",
"61",
"61",
"51",
"77",
"89",
"86",
"90",
"119",
"99",
"98",
"121",
"131",
"116",
"137",
"144",
"116",
"152",
"157",
"145",
"136",
"136",
"148",
"114",
"137",
"125",
"132",
"128",
"113",
"121",
"100",
"100",
"105",
"121",
"124",
"110",
"111",
"97",
"125",
"95",
"99",
"96",
"101",
"101",
"91",
"108",
"98",
"116",
"110",
"116",
"109",
"122",
"165",
"149",
"137",
"161",
"154",
"157",
"164",
"151",
"163",
"173",
"164",
"152",
"158",
"164",
"158",
"146",
"157",
"144",
"153",
"140",
"145",
"152",
"153",
"160",
"173",
"158",
"131",
"150",
"147",
"151",
"157",
"171",
"167",
"162",
"173",
"164",
"208",
"169",
"188",
"188",
"204",
"210",
"196",
"197",
"178",
"220",
"234",
"221",
"224",
"231",
"216",
"239",
"237",
"239",
"266",
"245",
"220",
"249",
"256",
"234",
"268",
"254",
"231",
"237",
"248",
"256",
"245",
"234",
"249",
"231",
"254",
"260",
"269",
"233",
"293",
"250",
"232",
"273",
"285",
"285",
"259",
"232",
"282",
"250",
"282",
"247",
"272",
"272",
"262",
"253",
"277",
"248",
"264",
"281",
"251",
"241",
"259",
"215",
"252",
"249",
"229",
"293",
"259",
"268",
"226",
"274",
"260",
"264",
"257",
"276",
"263",
"258",
"227",
"257",
"229",
"239",
"268",
"247",
"257",
"256",
"271",
"260",
"259",
"272",
"277",
"276",
"299",
"286",
"297",
"294",
"281",
"273",
"296",
"309",
"325",
"283",
"322",
"333",
"364",
"340",
"353",
"356",
"332",
"334",
"341",
"311",
"300",
"315",
"288",
"253",
"291",
"271",
"282",
"274",
"275",
"302",
"296",
"282",
"318",
"322",
"289",
"277",
"306",
"326",
"390",
"448",
"497",
"524",
"552",
"552",
"538",
"505",
"476",
"459",
"437",
"390",
"328",
"314",
"324",
"296",
"282",
"287",
"298",
"287",
"290",
"262",
"289",
"277",
"281",
"307",
"248",
"257",
"308",
"272",
"258",
"273",
"290",
"269",
"289",
"252",
"260",
"262",
"286",
"282",
"276",
"323",
"275",
"273",
"275",
"299",
"296",
"277",
"285",
"308",
"276",
"273",
"296",
"298",
"273",
"315",
"302",
"298",
"280",
"282",
"238",
"262",
"277",
"282",
"260",
"274",
"278",
"277",
"274",
"258",
"263",
"276",
"259",
"250",
"287",
"258",
"293",
"262",
"250",
"288",
"280",
"262",
"252",
"258",
"258",
"227",
"248",
"272",
"250",
"270",
"270",
"277",
"314",
"272",
"297",
"246",
"249",
"285",
"288",
"258",
"280",
"253",
"299",
"272",
"250",
"257",
"269",
"259",
"246",
"238",
"275",
"311",
"244",
"273",
"287",
"276",
"276",
"227",
"260",
"276",
"276",
"263",
"245",
"258",
"240",
"259",
"239",
"270",
"253",
"216",
"287",
"248",
"274",
"266",
"252",
"248",
"232",
"241",
"258",
"243",
"275",
"262",
"287",
"252",
"253",
"264",
"286",
"248",
"289",
"234",
"309",
"241",
"265",
"219",
"272",
"269",
"264",
"224",
"247",
"243",
"273",
"263",
"251",
"234",
"263",
"258",
"232",
"261",
"280",
"246",
"246",
"266",
"249",
"247",
"261",
"245",
"239",
"225",
"263",
"209",
"257",
"253",
"263",
"249",
"241",
"221",
"250",
"223",
"244",
"271",
"208",
"231",
"243",
"228",
"253",
"258",
"212",
"232",
"260",
"223",
"252",
"208",
"260",
"218",
"225",
"225",
"254",
"228",
"254",
"251",
"226",
"233",
"228",
"215",
"235",
"245",
"211",
"202",
"229",
"233",
"233",
"224",
"195",
"235",
"222",
"232",
"248",
"218",
"253",
"216",
"232",
"229",
"223",
"235",
"228",
"229",
"225",
"227",
"212",
"253",
"225",
"224",
"233",
"256",
"252",
"194",
"207",
"204",
"224",
"219",
"247",
"221",
"237",
"226",
"204",
"215",
"209",
"211",
"243",
"209",
"222",
"229",
"225",
"196",
"196",
"222",
"236",
"204",
"216",
"186",
"226",
"251",
"212",
"224",
"210",
"210",
"207",
"238",
"209",
"209",
"212",
"193",
"225",
"228",
"237",
"174",
"186",
"229",
"216",
"195",
"209",
"194",
"209",
"178",
"199",
"209",
"222",
"215",
"189",
"183",
"200",
"220",
"195",
"185",
"204",
"238",
"189",
"223",
"226",
"214",
"224",
"196",
"212",
"191",
"190",
"206",
"195",
"198",
"188",
"202",
"204",
"182",
"188",
"197",
"216",
"213",
"200",
"185",
"219",
"212",
"216",
"183",
"190",
"181",
"184",
"212",
"204",
"181",
"195",
"189",
"169",
"194",
"216",
"189",
"190",
"173",
"195",
"167",
"188",
"196",
"187",
"187",
"187",
"186",
"178",
"170",
"208",
"169",
"179",
"185",
"178",
"166",
"173",
"178",
"177",
"186",
"186",
"181",
"178",
"157",
"169",
"169",
"157",
"189",
"152",
"172",
"175",
"173",
"184",
"174",
"189",
"167",
"183",
"172",
"191",
"167",
"185",
"167",
"154",
"181",
"194",
"170",
"184",
"158",
"193",
"161",
"196",
"178",
"172",
"157",
"174",
"176",
"152",
"182",
"161",
"173",
"170",
"166",
"181",
"159",
"186",
"183",
"151",
"170",
"157",
"156",
"160",
"158",
"150",
"164",
"173",
"165",
"160",
"183",
"175",
"128",
"167",
"158",
"161",
"171",
"181",
"156",
"164",
"171",
"162",
"151",
"169",
"204",
"171",
"163",
"166",
"165",
"170",
"189",
"156",
"179",
"159",
"139",
"159",
"169",
"185",
"147",
"163",
"166",
"163",
"171",
"189",
"178",
"182",
"183",
"158",
"146",
"174",
"190",
"161",
"209",
"200",
"165",
"188",
"182",
"203",
"161",
"177",
"172",
"183",
"197",
"183",
"184",
"137",
"211",
"158",
"184",
"191",
"185",
"200",
"195",
"210",
"208",
"188",
"204",
"210",
"209",
"227",
"194",
"226",
"188",
"250",
"251",
"250",
"248",
"218",
"231",
"254",
"291",
"324",
"305",
"326",
"293",
"373",
"356",
"411",
"350",
"452",
"434",
"536",
"537",
"591",
"588",
"726",
"687",
"780",
"737",
"849",
"928",
"1019",
"1035",
"1127",
"1156",
"1202",
"1269",
"1309",
"1209",
"1229",
"1284",
"1353",
"1201",
"1164",
"1051",
"1151",
"1121",
"1064",
"982",
"947",
"871",
"901",
"783",
"811",
"681",
"682",
"574",
"581",
"479",
"505",
"424",
"380",
"347",
"361",
"318",
"307",
"269",
"272",
"253",
"280",
"266",
"256",
"261",
"290",
"290",
"299",
"332",
"363",
"363",
"403",
"444",
"467",
"472",
"493",
"463",
"495",
"505",
"523",
"480",
"412",
"430",
"402",
"323",
"313",
"274",
"234",
"227",
"201",
"172",
"171",
"156",
"148",
"172",
"179",
"126",
"83144",
"Channel_info_start",
"Channel : Mg",
"Points : 0",
"Range : 0.000000 - 0.000000",
"Step : 0.010000",
"Channel_info_end",
"Channel_info_start",
"Channel : Al",
"Points : 0",
"Range : 0.000000 - 0.000000",
"Step : 0.010000",
"Channel_info_end",
"Channel_info_start",
"Channel : Si",
"Points : 0",
"Range : 0.000000 - 0.000000",
"Step : 0.010000",
"Channel_info_end",
"Channel_info_start",
"Channel : P ",
"Points : 0",
"Range : 0.000000 - 0.000000",
"Step : 0.010000",
"Channel_info_end",
"Channel_info_start",
"Channel : S ",
"Points : 0",
"Range : 0.000000 - 0.000000",
"Step : 0.010000",
"Channel_info_end",
"Channel_info_start",
"Channel : Cl",
"Points : 0",
"Range : 0.000000 - 0.000000",
"Step : 0.010000",
"Channel_info_end",
"Channel_info_start",
"Channel : K ",
"Points : 0",
"Range : 0.000000 - 0.000000",
"Step : 0.010000",
"Channel_info_end",
"Channel_info_start",
"Channel : Ca",
"Points : 0",
"Range : 0.000000 - 0.000000",
"Step : 0.010000",
"Channel_info_end",
"Channel_info_start",
"Channel : Ti",
"Points : 0",
"Range : 0.000000 - 0.000000",
"Step : 0.010000",
"Channel_info_end",
"Channel_info_start",
"Channel : V ",
"Points : 0",
"Range : 0.000000 - 0.000000",
"Step : 0.010000",
"Channel_info_end",
"Channel_info_start",
"Channel : Cr",
"Points : 0",
"Range : 0.000000 - 0.000000",
"Step : 0.010000",
"Channel_info_end",
"Channel_info_start",
"Channel : Mn",
"Points : 0",
"Range : 0.000000 - 0.000000",
"Step : 0.010000",
"Channel_info_end",
"Channel_info_start",
"Channel : Fe",
"Points : 0",
"Range : 0.000000 - 0.000000",
"Step : 0.010000",
"Channel_info_end",
"Channel_info_start",
"Channel : Cu",
"Points : 0",
"Range : 0.000000 - 0.000000",
"Step : 0.010000",
"Channel_info_end",
"Channel_info_start",
"Channel : Zn",
"Points : 0",
"Range : 0.000000 - 0.000000",
"Step : 0.010000",
"Channel_info_end",
"Channel_info_start",
"Channel : Sr",
"Points : 0",
"Range : 0.000000 - 0.000000",
"Step : 0.010000",
"Channel_info_end",
"Channel_info_start",
"Channel : Pb",
"Points : 0",
"Range : 0.000000 - 0.000000",
"Step : 0.010000",
"Channel_info_end",
"",
"Qualitative Result",
"--------------------------------------------------------------------------------",
"Element :  Na, P , S , Cl, Ca, Ti, Ru",
"",
"Peak List",
"--------------------------------------------------------------------------------",
"Channel               Line        keV     Net Int.(cps/uA)",
"--------------------------------------------------------------------------------",
"Na                    ----         0.88     0.018",
"                      NaKa         1.05     0.016",
"                      P Ka         2.00     0.013",
"                      S Ka         2.30     0.015",
"                      ClKa         2.62     1.252",
"                      ClKb         2.84     0.106",
"                      CaKa         3.68     0.173",
"                      CaKb         4.02     0.021",
"                      TiKa         4.56     0.007",
"                      ----         8.62     0.035",
"                      RuKa        19.20     0.139",
"                      ----        19.44     0.070",
"                      ----        20.04     0.042",
"--------------------------------------------------------------------------------",
"",
"Quantitative Result",
"--------------------------------------------------------------------------------",
"Analyte               Result             Std.Dev. Proc.-Calc. Line Intensity(cps/uA)",
"--------------------------------------------------------------------------------",
"====[No. 1 Layer]====< Layer1               >===============================",
"Layer1                  16.054 ug/cm2    -------- Flux       -------- --------",
"Na                      16.054 ug/cm2    -------- ********** -------- --------",