File: inputs/edxCalibration/edx_raw/2010/junho/NdF3 31515.20100526005120.csv
"Sample    : NdF3 31515",
"Operator  : luisf",
"Comment  : cubatao-g-policarbonato",
"Group     : kerr2007ag180cal_lt",
"Date       : 2010-05-26 00:47:20",
"",
"Mesurement Condition",
"------------------------------------------------------------------------------------",
"Instrument : 700HS2   Atmosphere : Vac.   Collimator : 10(mm)   Spin : No",
"------------------------------------------------------------------------------------",
"Analyte               TG kV   uA      FI Acq.(keV)  Anal.(keV)  Time(sec)     DT(%)",
"------------------------------------------------------------------------------------",
"Na                    Rh 50  309-Auto Al  0 - 20    0.8 - 1.2   Live -  179   13",
"",
"<Profile>",
"Channel_info_start",
"Channel : Na",
"Points : 2048",
"Range : 0.000000 - 20.48",
"Step : 0.010000",
"Channel_info_end",
"0",
"0",
"0",
"0",
"0",
"0",
"0",
"0",
"0",
"0",
"0",
"0",
"0",
"0",
"0",
"11",
"19",
"21",
"17",
"18",
"25",
"16",
"18",
"17",
"23",
"11",
"17",
"21",
"24",
"17",
"15",
"22",
"19",
"25",
"25",
"36",
"23",
"30",
"30",
"32",
"27",
"32",
"29",
"26",
"32",
"31",
"57",
"90",
"146",
"186",
"228",
"186",
"204",
"123",
"93",
"60",
"57",
"55",
"70",
"66",
"71",
"73",
"70",
"51",
"56",
"66",
"57",
"44",
"45",
"37",
"28",
"42",
"25",
"33",
"35",
"21",
"27",
"29",
"24",
"26",
"19",
"19",
"16",
"29",
"28",
"31",
"25",
"29",
"22",
"28",
"22",
"26",
"24",
"28",
"26",
"30",
"49",
"78",
"85",
"89",
"117",
"95",
"93",
"77",
"50",
"49",
"29",
"15",
"23",
"19",
"19",
"23",
"26",
"16",
"12",
"19",
"22",
"25",
"17",
"14",
"22",
"12",
"21",
"11",
"21",
"22",
"16",
"18",
"16",
"23",
"17",
"22",
"17",
"25",
"29",
"27",
"26",
"22",
"25",
"22",
"36",
"28",
"26",
"22",
"31",
"21",
"18",
"32",
"30",
"17",
"25",
"19",
"17",
"25",
"27",
"21",
"26",
"35",
"25",
"39",
"28",
"29",
"38",
"23",
"27",
"31",
"31",
"36",
"32",
"44",
"68",
"57",
"89",
"118",
"115",
"93",
"129",
"111",
"164",
"217",
"349",
"548",
"740",
"969",
"1188",
"1122",
"1110",
"838",
"587",
"350",
"227",
"145",
"93",
"70",
"97",
"91",
"111",
"126",
"186",
"190",
"219",
"230",
"194",
"164",
"131",
"94",
"68",
"68",
"38",
"56",
"70",
"46",
"55",
"58",
"70",
"72",
"64",
"77",
"80",
"86",
"89",
"91",
"104",
"85",
"122",
"153",
"191",
"255",
"359",
"432",
"589",
"648",
"659",
"614",
"504",
"367",
"359",
"234",
"181",
"165",
"127",
"119",
"95",
"109",
"103",
"126",
"125",
"134",
"139",
"153",
"175",
"230",
"327",
"579",
"1053",
"1800",
"3153",
"5179",
"7787",
"9905",
"12270",
"12973",
"13293",
"11567",
"9395",
"6827",
"4508",
"2772",
"1549",
"771",
"453",
"269",
"217",
"171",
"180",
"164",
"187",
"295",
"501",
"804",
"1435",
"2406",
"3677",
"5142",
"6801",
"7700",
"8576",
"8001",
"7458",
"6305",
"5147",
"4077",
"3070",
"2250",
"1752",
"1305",
"946",
"768",
"813",
"826",
"1112",
"1431",
"1789",
"2073",
"2418",
"2235",
"2138",
"1719",
"1362",
"1004",
"687",
"481",
"334",
"242",
"196",
"136",
"181",
"160",
"188",
"220",
"217",
"201",
"288",
"317",
"460",
"563",
"762",
"1019",
"1114",
"1258",
"1308",
"1173",
"1102",
"874",
"729",
"516",
"408",
"305",
"268",
"404",
"416",
"556",
"622",
"703",
"678",
"674",
"594",
"535",
"454",
"338",
"347",
"287",
"237",
"240",
"223",
"206",
"219",
"204",
"175",
"148",
"142",
"149",
"112",
"133",
"113",
"124",
"116",
"132",
"99",
"104",
"106",
"122",
"120",
"106",
"110",
"108",
"113",
"122",
"107",
"102",
"113",
"122",
"132",
"104",
"105",
"166",
"120",
"129",
"134",
"144",
"162",
"119",
"153",
"139",
"161",
"140",
"159",
"190",
"156",
"171",
"223",
"164",
"186",
"210",
"214",
"186",
"178",
"185",
"170",
"159",
"167",
"116",
"124",
"149",
"131",
"123",
"136",
"134",
"127",
"146",
"129",
"147",
"123",
"127",
"144",
"125",
"142",
"160",
"170",
"179",
"176",
"185",
"186",
"172",
"176",
"166",
"146",
"135",
"142",
"131",
"136",
"146",
"125",
"111",
"161",
"117",
"140",
"144",
"131",
"132",
"119",
"137",
"122",
"129",
"127",
"135",
"117",
"124",
"118",
"121",
"131",
"125",
"157",
"122",
"144",
"124",
"140",
"120",
"118",
"132",
"117",
"126",
"113",
"136",
"132",
"126",
"134",
"134",
"125",
"117",
"144",
"154",
"140",
"136",
"172",
"124",
"119",
"135",
"132",
"122",
"137",
"126",
"127",
"113",
"112",
"143",
"138",
"130",
"115",
"130",
"123",
"122",
"137",
"124",
"130",
"139",
"123",
"125",
"130",
"145",
"130",
"146",
"135",
"119",
"112",
"142",
"137",
"143",
"132",
"131",
"138",
"122",
"139",
"150",
"148",
"129",
"123",
"122",
"130",
"110",
"103",
"108",
"130",
"102",
"116",
"122",
"133",
"112",
"104",
"124",
"138",
"119",
"136",
"111",
"126",
"129",
"147",
"103",
"110",
"150",
"149",
"106",
"129",
"119",
"115",
"117",
"123",
"102",
"136",
"111",
"123",
"119",
"129",
"127",
"115",
"113",
"99",
"96",
"98",
"111",
"116",
"110",
"133",
"120",
"111",
"146",
"120",
"127",
"127",
"115",
"110",
"117",
"134",
"113",
"120",
"126",
"135",
"121",
"111",
"104",
"97",
"109",
"123",
"131",
"123",
"122",
"143",
"115",
"116",
"83",
"100",
"135",
"110",
"120",
"123",
"91",
"120",
"123",
"123",
"113",
"100",
"117",
"131",
"121",
"123",
"103",
"119",
"107",
"106",
"86",
"120",
"110",
"89",
"121",
"109",
"110",
"97",
"111",
"99",
"97",
"108",
"97",
"112",
"109",
"81",
"97",
"97",
"107",
"104",
"110",
"126",
"96",
"102",
"107",
"87",
"95",
"86",
"95",
"103",
"102",
"110",
"100",
"90",
"81",
"93",
"106",
"98",
"100",
"90",
"93",
"102",
"86",
"95",
"93",
"102",
"106",
"115",
"120",
"112",
"97",
"103",
"95",
"97",
"94",
"95",
"91",
"118",
"85",
"111",
"76",
"94",
"89",
"100",
"83",
"119",
"105",
"92",
"100",
"93",
"80",
"104",
"118",
"96",
"92",
"82",
"84",
"106",
"72",
"91",
"83",
"83",
"82",
"98",
"102",
"99",
"85",
"86",
"90",
"90",
"84",
"103",
"97",
"80",
"109",
"77",
"78",
"91",
"84",
"65",
"89",
"72",
"82",
"102",
"69",
"81",
"79",
"98",
"87",
"85",
"84",
"83",
"87",
"93",
"89",
"78",
"84",
"111",
"94",
"75",
"85",
"96",
"77",
"94",
"84",
"89",
"85",
"67",
"81",
"78",
"86",
"91",
"84",
"86",
"83",
"105",
"64",
"95",
"81",
"71",
"93",
"80",
"89",
"89",
"87",
"58",
"86",
"90",
"96",
"102",
"75",
"75",
"76",
"102",
"70",
"60",
"76",
"79",
"77",
"71",
"62",
"80",
"87",
"81",
"68",
"83",
"93",
"65",
"84",
"73",
"70",
"78",
"73",
"95",
"90",
"81",
"77",
"71",
"72",
"84",
"69",
"68",
"71",
"70",
"65",
"71",
"81",
"76",
"76",
"78",
"69",
"87",
"63",
"63",
"67",
"83",
"62",
"93",
"80",
"71",
"73",
"75",
"79",
"73",
"91",
"91",
"65",
"71",
"84",
"73",
"60",
"76",
"71",
"63",
"71",
"75",
"77",
"83",
"73",
"66",
"67",
"71",
"60",
"71",
"57",
"85",
"75",
"70",
"66",
"68",
"79",
"57",
"60",
"87",
"76",
"77",
"77",
"67",
"76",
"70",
"58",
"81",
"69",
"69",
"66",
"82",
"71",
"68",
"70",
"64",
"71",
"66",
"80",
"64",
"68",
"68",
"72",
"75",
"77",
"56",
"64",
"91",
"67",
"69",
"60",
"71",
"58",
"75",
"54",
"66",
"92",
"65",
"63",
"57",
"76",
"84",
"64",
"73",
"83",
"78",
"81",
"69",
"84",
"83",
"72",
"86",
"91",
"97",
"79",
"71",
"76",
"79",
"85",
"62",
"77",
"75",
"77",
"95",
"64",
"89",
"89",
"97",
"92",
"112",
"93",
"95",
"92",
"105",
"95",
"103",
"89",
"111",
"104",
"116",
"140",
"115",
"131",
"137",
"165",
"158",
"167",
"177",
"193",
"204",
"197",
"252",
"227",
"280",
"273",
"358",
"347",
"356",
"364",
"394",
"395",
"440",
"425",
"452",
"429",
"446",
"499",
"512",
"432",
"457",
"433",
"428",
"371",
"422",
"389",
"364",
"340",
"325",
"302",
"312",
"317",
"250",
"206",
"213",
"194",
"204",
"183",
"173",
"137",
"147",
"138",
"133",
"123",
"118",
"116",
"98",
"116",
"98",
"139",
"143",
"145",
"183",
"156",
"196",
"212",
"239",
"275",
"272",
"306",
"264",
"312",
"310",
"308",
"260",
"267",
"283",
"226",
"189",
"207",
"153",
"134",
"117",
"93",
"87",
"73",
"84",
"70",
"76",
"62",
"70",
"67",
"34610",
"Channel_info_start",
"Channel : Mg",
"Points : 0",
"Range : 0.000000 - 0.000000",
"Step : 0.010000",
"Channel_info_end",
"Channel_info_start",
"Channel : Al",
"Points : 0",
"Range : 0.000000 - 0.000000",
"Step : 0.010000",
"Channel_info_end",
"Channel_info_start",
"Channel : Si",
"Points : 0",
"Range : 0.000000 - 0.000000",
"Step : 0.010000",
"Channel_info_end",
"Channel_info_start",
"Channel : P ",
"Points : 0",
"Range : 0.000000 - 0.000000",
"Step : 0.010000",
"Channel_info_end",
"Channel_info_start",
"Channel : S ",
"Points : 0",
"Range : 0.000000 - 0.000000",
"Step : 0.010000",
"Channel_info_end",
"Channel_info_start",
"Channel : Cl",
"Points : 0",
"Range : 0.000000 - 0.000000",
"Step : 0.010000",
"Channel_info_end",
"Channel_info_start",
"Channel : K ",
"Points : 0",
"Range : 0.000000 - 0.000000",
"Step : 0.010000",
"Channel_info_end",
"Channel_info_start",
"Channel : Ca",
"Points : 0",
"Range : 0.000000 - 0.000000",
"Step : 0.010000",
"Channel_info_end",
"Channel_info_start",
"Channel : Ti",
"Points : 0",
"Range : 0.000000 - 0.000000",
"Step : 0.010000",
"Channel_info_end",
"Channel_info_start",
"Channel : V ",
"Points : 0",
"Range : 0.000000 - 0.000000",
"Step : 0.010000",
"Channel_info_end",
"Channel_info_start",
"Channel : Cr",
"Points : 0",
"Range : 0.000000 - 0.000000",
"Step : 0.010000",
"Channel_info_end",
"Channel_info_start",
"Channel : Mn",
"Points : 0",
"Range : 0.000000 - 0.000000",
"Step : 0.010000",
"Channel_info_end",
"Channel_info_start",
"Channel : Fe",
"Points : 0",
"Range : 0.000000 - 0.000000",
"Step : 0.010000",
"Channel_info_end",
"Channel_info_start",
"Channel : Cu",
"Points : 0",
"Range : 0.000000 - 0.000000",
"Step : 0.010000",
"Channel_info_end",
"Channel_info_start",
"Channel : Zn",
"Points : 0",
"Range : 0.000000 - 0.000000",
"Step : 0.010000",
"Channel_info_end",
"Channel_info_start",
"Channel : Sr",
"Points : 0",
"Range : 0.000000 - 0.000000",
"Step : 0.010000",
"Channel_info_end",
"Channel_info_start",
"Channel : Pb",
"Points : 0",
"Range : 0.000000 - 0.000000",
"Step : 0.010000",
"Channel_info_end",
"",
"Qualitative Result",
"--------------------------------------------------------------------------------",
"Element :  Nd, Mg, P , Ca, La, Ru",
"",
"Peak List",
"--------------------------------------------------------------------------------",
"Channel               Line        keV     Net Int.(cps/uA)",
"--------------------------------------------------------------------------------",
"Na                    NdMa         1.00     0.045",
"                      MgKa         1.23     0.008",
"                      P Ka         2.00     0.020",
"                      NdLaESC      3.47     0.020",
"                      CaKa         3.68     0.300",
"                      CaKb         4.01     0.047",
"                      NdLL         4.63     0.108",
"                      LaLa         4.63     0.045",
"                      NdLa         5.23     3.607",
"                      NdLb1        5.72     2.351",
"                      NdLb2        6.09     0.613",
"                      NdLg1        6.60     0.335",
"                      NdLg2        6.88     0.161",
"                      ----         8.06     0.027",
"                      RuKa        19.20     0.142",
"                      ----        19.45     0.066",
"                      ----        20.00     0.066",
"--------------------------------------------------------------------------------",
"",
"Quantitative Result",
"--------------------------------------------------------------------------------",
"Analyte               Result             Std.Dev. Proc.-Calc. Line Intensity(cps/uA)",
"--------------------------------------------------------------------------------",
"====[No. 1 Layer]====< Layer1               >===============================",
"Layer1                   2.450 ug/cm2    -------- Flux       -------- --------",
"Mg                       2.450 ug/cm2    -------- ********** -------- --------",