File: inputs/edxCalibration/edx_raw/2010/junho/NdF3 31515.20100626150702.csv
"Sample    : NdF3 31515",
"Operator  : thiago",
"Comment  : cubatao-g-policarbonato",
"Group     : kerr2007ag180cal_lt",
"Date       : 2010-06-26 15:02:49",
"",
"Mesurement Condition",
"------------------------------------------------------------------------------------",
"Instrument : 700HS2   Atmosphere : Vac.   Collimator : 10(mm)   Spin : No",
"------------------------------------------------------------------------------------",
"Analyte               TG kV   uA      FI Acq.(keV)  Anal.(keV)  Time(sec)     DT(%)",
"------------------------------------------------------------------------------------",
"Na                    Rh 50  360-Auto Al  0 - 20    0.8 - 1.2   Live -  179   15",
"",
"<Profile>",
"Channel_info_start",
"Channel : Na",
"Points : 2048",
"Range : 0.000000 - 20.48",
"Step : 0.010000",
"Channel_info_end",
"0",
"0",
"0",
"0",
"0",
"0",
"0",
"0",
"0",
"0",
"0",
"0",
"0",
"0",
"1",
"10",
"23",
"22",
"17",
"20",
"21",
"22",
"13",
"21",
"24",
"23",
"17",
"21",
"17",
"20",
"14",
"27",
"24",
"23",
"31",
"39",
"29",
"42",
"43",
"42",
"34",
"25",
"26",
"28",
"39",
"56",
"73",
"110",
"185",
"197",
"253",
"272",
"197",
"141",
"114",
"79",
"71",
"70",
"61",
"85",
"68",
"102",
"84",
"81",
"64",
"86",
"74",
"78",
"52",
"39",
"44",
"29",
"36",
"26",
"32",
"21",
"21",
"35",
"28",
"23",
"16",
"35",
"20",
"31",
"32",
"32",
"33",
"29",
"47",
"35",
"29",
"27",
"23",
"38",
"29",
"54",
"55",
"67",
"99",
"131",
"104",
"129",
"92",
"67",
"67",
"32",
"33",
"34",
"24",
"35",
"20",
"37",
"27",
"28",
"23",
"27",
"25",
"26",
"20",
"24",
"24",
"28",
"25",
"23",
"27",
"17",
"14",
"20",
"21",
"22",
"26",
"37",
"25",
"29",
"28",
"31",
"42",
"21",
"37",
"36",
"28",
"27",
"36",
"25",
"37",
"27",
"32",
"29",
"32",
"28",
"29",
"26",
"23",
"23",
"20",
"37",
"29",
"29",
"27",
"26",
"31",
"34",
"27",
"26",
"28",
"31",
"38",
"37",
"44",
"63",
"69",
"90",
"97",
"130",
"129",
"127",
"108",
"154",
"169",
"230",
"404",
"537",
"942",
"1202",
"1373",
"1403",
"1296",
"1001",
"701",
"426",
"245",
"175",
"118",
"99",
"118",
"111",
"140",
"143",
"205",
"247",
"238",
"279",
"261",
"221",
"166",
"137",
"88",
"80",
"76",
"56",
"78",
"70",
"81",
"58",
"71",
"80",
"80",
"91",
"128",
"104",
"101",
"102",
"111",
"121",
"131",
"179",
"236",
"307",
"388",
"515",
"633",
"726",
"732",
"694",
"636",
"471",
"381",
"262",
"220",
"158",
"153",
"117",
"152",
"138",
"126",
"140",
"146",
"150",
"157",
"177",
"201",
"260",
"415",
"605",
"1120",
"1966",
"3550",
"5533",
"8406",
"11212",
"13779",
"15160",
"15500",
"13564",
"11163",
"8294",
"5718",
"3337",
"2047",
"1057",
"564",
"322",
"232",
"168",
"205",
"208",
"222",
"318",
"478",
"862",
"1570",
"2561",
"4133",
"5670",
"7475",
"8567",
"9827",
"9563",
"8685",
"7450",
"6314",
"4864",
"3760",
"2756",
"2130",
"1494",
"1162",
"924",
"803",
"921",
"1187",
"1587",
"1951",
"2401",
"2761",
"2545",
"2505",
"1958",
"1725",
"1263",
"871",
"596",
"428",
"280",
"249",
"200",
"175",
"211",
"222",
"239",
"262",
"277",
"286",
"357",
"520",
"657",
"874",
"1047",
"1222",
"1378",
"1532",
"1402",
"1300",
"993",
"867",
"630",
"511",
"424",
"382",
"439",
"505",
"594",
"683",
"753",
"760",
"732",
"768",
"574",
"564",
"458",
"380",
"298",
"304",
"258",
"216",
"259",
"238",
"206",
"217",
"212",
"184",
"177",
"170",
"152",
"141",
"126",
"127",
"144",
"120",
"122",
"137",
"109",
"127",
"127",
"138",
"141",
"114",
"143",
"140",
"109",
"143",
"134",
"128",
"144",
"150",
"161",
"141",
"140",
"153",
"159",
"139",
"169",
"132",
"182",
"176",
"169",
"201",
"177",
"205",
"200",
"205",
"203",
"252",
"235",
"209",
"221",
"173",
"226",
"206",
"178",
"151",
"157",
"176",
"184",
"161",
"120",
"134",
"143",
"167",
"152",
"152",
"153",
"161",
"132",
"176",
"169",
"170",
"177",
"190",
"198",
"213",
"210",
"248",
"223",
"189",
"185",
"156",
"155",
"187",
"152",
"163",
"163",
"137",
"141",
"156",
"176",
"164",
"172",
"168",
"131",
"152",
"129",
"145",
"141",
"165",
"134",
"146",
"131",
"134",
"128",
"141",
"141",
"125",
"154",
"166",
"120",
"150",
"146",
"161",
"159",
"147",
"129",
"138",
"142",
"157",
"168",
"173",
"143",
"157",
"165",
"167",
"147",
"167",
"134",
"161",
"139",
"133",
"161",
"149",
"131",
"155",
"156",
"133",
"117",
"140",
"151",
"166",
"163",
"175",
"156",
"152",
"153",
"149",
"155",
"152",
"145",
"154",
"164",
"153",
"138",
"155",
"138",
"149",
"154",
"137",
"150",
"163",
"165",
"154",
"138",
"151",
"174",
"169",
"154",
"134",
"163",
"145",
"155",
"153",
"132",
"121",
"142",
"145",
"143",
"149",
"121",
"143",
"143",
"127",
"126",
"145",
"141",
"161",
"146",
"139",
"139",
"152",
"156",
"138",
"133",
"135",
"135",
"140",
"130",
"146",
"157",
"149",
"140",
"150",
"153",
"142",
"104",
"137",
"132",
"158",
"153",
"126",
"123",
"149",
"140",
"143",
"157",
"152",
"145",
"129",
"120",
"137",
"135",
"131",
"129",
"151",
"133",
"138",
"126",
"138",
"119",
"138",
"139",
"129",
"116",
"137",
"110",
"129",
"117",
"129",
"130",
"151",
"105",
"114",
"129",
"120",
"128",
"133",
"121",
"127",
"123",
"149",
"120",
"117",
"131",
"151",
"141",
"133",
"129",
"139",
"103",
"118",
"128",
"130",
"137",
"120",
"113",
"140",
"134",
"131",
"114",
"134",
"126",
"131",
"150",
"114",
"137",
"110",
"147",
"143",
"109",
"126",
"135",
"134",
"117",
"144",
"98",
"119",
"117",
"105",
"109",
"110",
"130",
"104",
"118",
"113",
"113",
"141",
"121",
"122",
"110",
"128",
"117",
"113",
"104",
"107",
"107",
"118",
"113",
"108",
"114",
"108",
"109",
"133",
"127",
"104",
"119",
"138",
"101",
"101",
"122",
"113",
"118",
"121",
"99",
"94",
"131",
"95",
"96",
"127",
"109",
"123",
"107",
"115",
"106",
"116",
"114",
"119",
"115",
"107",
"105",
"120",
"121",
"91",
"104",
"107",
"117",
"144",
"121",
"111",
"96",
"93",
"105",
"97",
"104",
"86",
"101",
"106",
"109",
"98",
"114",
"114",
"85",
"107",
"99",
"117",
"86",
"92",
"102",
"86",
"101",
"95",
"104",
"129",
"103",
"105",
"111",
"110",
"115",
"117",
"87",
"104",
"79",
"121",
"99",
"88",
"83",
"84",
"99",
"97",
"97",
"109",
"97",
"103",
"95",
"98",
"85",
"82",
"88",
"104",
"106",
"109",
"91",
"109",
"88",
"101",
"99",
"90",
"88",
"105",
"94",
"97",
"98",
"98",
"97",
"111",
"82",
"88",
"110",
"103",
"97",
"86",
"74",
"110",
"85",
"99",
"71",
"98",
"93",
"90",
"107",
"76",
"96",
"72",
"83",
"81",
"94",
"96",
"95",
"79",
"90",
"76",
"91",
"94",
"86",
"93",
"90",
"87",
"85",
"95",
"86",
"80",
"68",
"101",
"83",
"83",
"90",
"84",
"79",
"90",
"92",
"92",
"78",
"95",
"72",
"85",
"87",
"83",
"87",
"85",
"81",
"82",
"80",
"91",
"84",
"74",
"83",
"93",
"80",
"80",
"71",
"90",
"91",
"84",
"74",
"90",
"80",
"83",
"75",
"85",
"74",
"94",
"98",
"81",
"99",
"71",
"79",
"88",
"82",
"82",
"67",
"96",
"71",
"85",
"81",
"68",
"72",
"78",
"55",
"87",
"74",
"82",
"64",
"82",
"67",
"96",
"90",
"74",
"80",
"73",
"73",
"84",
"71",
"97",
"85",
"78",
"66",
"90",
"75",
"81",
"87",
"97",
"84",
"69",
"69",
"83",
"78",
"86",
"88",
"72",
"93",
"115",
"92",
"92",
"84",
"73",
"76",
"88",
"101",
"90",
"87",
"82",
"71",
"91",
"85",
"94",
"79",
"96",
"96",
"84",
"101",
"99",
"102",
"113",
"98",
"106",
"87",
"114",
"105",
"95",
"109",
"116",
"114",
"151",
"102",
"127",
"117",
"131",
"132",
"123",
"150",
"157",
"151",
"186",
"185",
"209",
"228",
"214",
"267",
"304",
"281",
"296",
"336",
"336",
"363",
"427",
"403",
"446",
"447",
"469",
"458",
"503",
"507",
"543",
"518",
"582",
"574",
"525",
"511",
"534",
"488",
"501",
"481",
"419",
"411",
"378",
"378",
"356",
"319",
"315",
"238",
"277",
"244",
"251",
"179",
"204",
"162",
"175",
"154",
"161",
"115",
"158",
"147",
"138",
"133",
"134",
"129",
"173",
"131",
"142",
"172",
"203",
"199",
"240",
"249",
"286",
"285",
"320",
"324",
"378",
"333",
"360",
"327",
"339",
"284",
"274",
"236",
"206",
"184",
"141",
"152",
"127",
"92",
"93",
"70",
"72",
"71",
"84",
"82",
"40306",
"Channel_info_start",
"Channel : Mg",
"Points : 0",
"Range : 0.000000 - 0.000000",
"Step : 0.010000",
"Channel_info_end",
"Channel_info_start",
"Channel : Al",
"Points : 0",
"Range : 0.000000 - 0.000000",
"Step : 0.010000",
"Channel_info_end",
"Channel_info_start",
"Channel : Si",
"Points : 0",
"Range : 0.000000 - 0.000000",
"Step : 0.010000",
"Channel_info_end",
"Channel_info_start",
"Channel : P ",
"Points : 0",
"Range : 0.000000 - 0.000000",
"Step : 0.010000",
"Channel_info_end",
"Channel_info_start",
"Channel : S ",
"Points : 0",
"Range : 0.000000 - 0.000000",
"Step : 0.010000",
"Channel_info_end",
"Channel_info_start",
"Channel : Cl",
"Points : 0",
"Range : 0.000000 - 0.000000",
"Step : 0.010000",
"Channel_info_end",
"Channel_info_start",
"Channel : K ",
"Points : 0",
"Range : 0.000000 - 0.000000",
"Step : 0.010000",
"Channel_info_end",
"Channel_info_start",
"Channel : Ca",
"Points : 0",
"Range : 0.000000 - 0.000000",
"Step : 0.010000",
"Channel_info_end",
"Channel_info_start",
"Channel : Ti",
"Points : 0",
"Range : 0.000000 - 0.000000",
"Step : 0.010000",
"Channel_info_end",
"Channel_info_start",
"Channel : V ",
"Points : 0",
"Range : 0.000000 - 0.000000",
"Step : 0.010000",
"Channel_info_end",
"Channel_info_start",
"Channel : Cr",
"Points : 0",
"Range : 0.000000 - 0.000000",
"Step : 0.010000",
"Channel_info_end",
"Channel_info_start",
"Channel : Mn",
"Points : 0",
"Range : 0.000000 - 0.000000",
"Step : 0.010000",
"Channel_info_end",
"Channel_info_start",
"Channel : Fe",
"Points : 0",
"Range : 0.000000 - 0.000000",
"Step : 0.010000",
"Channel_info_end",
"Channel_info_start",
"Channel : Cu",
"Points : 0",
"Range : 0.000000 - 0.000000",
"Step : 0.010000",
"Channel_info_end",
"Channel_info_start",
"Channel : Zn",
"Points : 0",
"Range : 0.000000 - 0.000000",
"Step : 0.010000",
"Channel_info_end",
"Channel_info_start",
"Channel : Sr",
"Points : 0",
"Range : 0.000000 - 0.000000",
"Step : 0.010000",
"Channel_info_end",
"Channel_info_start",
"Channel : Pb",
"Points : 0",
"Range : 0.000000 - 0.000000",
"Step : 0.010000",
"Channel_info_end",
"",
"Qualitative Result",
"--------------------------------------------------------------------------------",
"Element :  Nd, Mg, P , Ca, Sm, Cu, Ru",
"",
"Peak List",
"--------------------------------------------------------------------------------",
"Channel               Line        keV     Net Int.(cps/uA)",
"--------------------------------------------------------------------------------",
"Na                    NdMa         1.01     0.043",
"                      MgKa         1.21     0.008",
"                      ----         1.33     0.010",
"                      P Ka         2.01     0.018",
"                      NdLaESC      3.46     0.017",
"                      CaKa         3.69     0.301",
"                      CaKb         4.01     0.044",
"                      NdLL         4.64     0.145",
"                      NdLa         5.24     3.648",
"                      NdLb1        5.72     2.152",
"                      SmLa         5.72     0.152",
"                      NdLb2        6.08     0.605",
"                      NdLg1        6.60     0.328",
"                      NdLg2        6.88     0.153",
"                      CuKa         8.04     0.030",
"                      RuKa        19.21     0.144",
"--------------------------------------------------------------------------------",
"",
"Quantitative Result",
"--------------------------------------------------------------------------------",
"Analyte               Result             Std.Dev. Proc.-Calc. Line Intensity(cps/uA)",
"--------------------------------------------------------------------------------",
"====[No. 1 Layer]====< Layer1               >===============================",
"Layer1                   2.630 ug/cm2    -------- Flux       -------- --------",
"Mg                       2.630 ug/cm2    -------- ********** -------- --------",