File: inputs/edxCalibration/edx_raw/2010/junho/Ndf3 31515.20100611034500.csv
"Sample    : Ndf3 31515",
"Operator  : Luís",
"Comment  : cubatao-g-policarbonato",
"Group     : kerr2007ag180cal_lt",
"Date       : 2010-06-11 03:40:48",
"",
"Mesurement Condition",
"------------------------------------------------------------------------------------",
"Instrument : 700HS2   Atmosphere : Vac.   Collimator : 10(mm)   Spin : No",
"------------------------------------------------------------------------------------",
"Analyte               TG kV   uA      FI Acq.(keV)  Anal.(keV)  Time(sec)     DT(%)",
"------------------------------------------------------------------------------------",
"Na                    Rh 50  360-Auto Al  0 - 20    0.8 - 1.2   Live -  179   15",
"",
"<Profile>",
"Channel_info_start",
"Channel : Na",
"Points : 2048",
"Range : 0.000000 - 20.48",
"Step : 0.010000",
"Channel_info_end",
"0",
"0",
"0",
"0",
"0",
"0",
"0",
"0",
"0",
"0",
"0",
"0",
"0",
"0",
"1",
"8",
"26",
"22",
"17",
"23",
"22",
"23",
"14",
"20",
"20",
"27",
"21",
"16",
"28",
"21",
"21",
"16",
"21",
"22",
"23",
"32",
"36",
"25",
"40",
"37",
"35",
"24",
"31",
"26",
"32",
"49",
"67",
"94",
"165",
"231",
"199",
"265",
"226",
"155",
"112",
"89",
"60",
"57",
"68",
"84",
"85",
"76",
"77",
"69",
"79",
"81",
"68",
"57",
"58",
"32",
"60",
"29",
"33",
"35",
"29",
"31",
"23",
"27",
"24",
"23",
"20",
"28",
"29",
"31",
"34",
"39",
"40",
"31",
"47",
"32",
"28",
"33",
"29",
"31",
"24",
"31",
"50",
"86",
"77",
"103",
"108",
"106",
"123",
"70",
"45",
"45",
"38",
"32",
"22",
"26",
"36",
"33",
"27",
"32",
"29",
"22",
"21",
"17",
"19",
"22",
"16",
"17",
"15",
"24",
"19",
"28",
"33",
"21",
"26",
"20",
"16",
"27",
"25",
"28",
"35",
"21",
"33",
"28",
"36",
"23",
"31",
"37",
"38",
"35",
"36",
"34",
"37",
"37",
"23",
"27",
"32",
"25",
"23",
"17",
"38",
"28",
"23",
"23",
"27",
"35",
"39",
"31",
"26",
"23",
"34",
"38",
"46",
"44",
"47",
"43",
"64",
"69",
"101",
"114",
"154",
"135",
"134",
"127",
"155",
"243",
"397",
"657",
"955",
"1131",
"1345",
"1306",
"1198",
"933",
"642",
"399",
"229",
"134",
"107",
"101",
"109",
"126",
"146",
"180",
"198",
"251",
"226",
"252",
"207",
"159",
"121",
"119",
"72",
"75",
"59",
"61",
"46",
"52",
"57",
"73",
"73",
"82",
"91",
"88",
"89",
"94",
"74",
"110",
"109",
"132",
"151",
"170",
"211",
"315",
"433",
"511",
"643",
"762",
"732",
"665",
"594",
"453",
"343",
"224",
"210",
"167",
"153",
"133",
"147",
"122",
"128",
"115",
"138",
"136",
"142",
"172",
"212",
"272",
"405",
"689",
"1293",
"2175",
"3894",
"6187",
"8940",
"11604",
"14221",
"14948",
"14875",
"12852",
"10240",
"7443",
"4922",
"2856",
"1645",
"835",
"483",
"301",
"205",
"177",
"163",
"182",
"244",
"339",
"612",
"1020",
"1784",
"2884",
"4643",
"6168",
"7952",
"8916",
"9630",
"9135",
"8414",
"6906",
"5705",
"4477",
"3449",
"2389",
"1832",
"1420",
"1049",
"905",
"821",
"961",
"1305",
"1652",
"2113",
"2367",
"2650",
"2519",
"2335",
"1918",
"1473",
"1126",
"758",
"478",
"343",
"262",
"220",
"180",
"200",
"190",
"220",
"210",
"229",
"243",
"336",
"396",
"500",
"730",
"925",
"1079",
"1357",
"1413",
"1389",
"1278",
"1183",
"948",
"752",
"596",
"478",
"422",
"417",
"429",
"483",
"632",
"676",
"768",
"783",
"679",
"665",
"545",
"493",
"440",
"348",
"275",
"280",
"261",
"222",
"247",
"259",
"223",
"198",
"186",
"180",
"144",
"126",
"138",
"134",
"109",
"126",
"127",
"150",
"110",
"120",
"128",
"135",
"122",
"98",
"114",
"129",
"117",
"128",
"130",
"121",
"130",
"142",
"134",
"136",
"131",
"143",
"160",
"164",
"143",
"162",
"151",
"153",
"176",
"175",
"187",
"200",
"171",
"210",
"178",
"219",
"218",
"203",
"202",
"224",
"229",
"177",
"170",
"156",
"172",
"145",
"144",
"171",
"141",
"157",
"177",
"168",
"135",
"123",
"134",
"144",
"143",
"134",
"138",
"139",
"136",
"164",
"156",
"194",
"189",
"190",
"195",
"181",
"212",
"199",
"158",
"175",
"151",
"136",
"163",
"156",
"148",
"151",
"139",
"145",
"141",
"150",
"152",
"159",
"171",
"154",
"124",
"140",
"131",
"132",
"136",
"130",
"157",
"138",
"127",
"154",
"130",
"141",
"140",
"180",
"154",
"163",
"131",
"172",
"140",
"136",
"165",
"152",
"167",
"176",
"155",
"143",
"150",
"156",
"130",
"172",
"159",
"169",
"158",
"133",
"130",
"143",
"134",
"145",
"151",
"180",
"141",
"148",
"156",
"160",
"143",
"141",
"160",
"138",
"131",
"154",
"147",
"146",
"151",
"154",
"146",
"138",
"133",
"154",
"141",
"156",
"139",
"151",
"131",
"136",
"138",
"165",
"148",
"165",
"157",
"152",
"128",
"167",
"151",
"176",
"141",
"169",
"156",
"115",
"134",
"141",
"145",
"115",
"140",
"128",
"105",
"152",
"140",
"134",
"140",
"129",
"124",
"138",
"135",
"128",
"142",
"157",
"129",
"159",
"145",
"143",
"142",
"153",
"120",
"148",
"133",
"128",
"141",
"123",
"136",
"153",
"131",
"138",
"111",
"145",
"130",
"143",
"146",
"142",
"129",
"138",
"133",
"140",
"143",
"141",
"130",
"133",
"140",
"122",
"122",
"127",
"128",
"145",
"145",
"132",
"130",
"132",
"127",
"130",
"126",
"152",
"132",
"146",
"127",
"129",
"134",
"118",
"147",
"140",
"133",
"122",
"124",
"153",
"129",
"126",
"120",
"148",
"129",
"162",
"138",
"129",
"116",
"118",
"117",
"119",
"115",
"123",
"138",
"129",
"123",
"142",
"123",
"129",
"116",
"129",
"124",
"101",
"117",
"138",
"120",
"119",
"116",
"121",
"119",
"117",
"118",
"114",
"112",
"131",
"101",
"112",
"116",
"114",
"126",
"123",
"138",
"112",
"121",
"92",
"106",
"106",
"120",
"104",
"128",
"127",
"107",
"96",
"119",
"118",
"110",
"114",
"93",
"119",
"122",
"108",
"115",
"112",
"118",
"96",
"100",
"114",
"107",
"109",
"101",
"103",
"111",
"117",
"95",
"103",
"108",
"126",
"117",
"116",
"131",
"96",
"101",
"122",
"95",
"108",
"97",
"111",
"95",
"132",
"110",
"108",
"122",
"112",
"107",
"99",
"106",
"109",
"111",
"86",
"104",
"114",
"85",
"94",
"100",
"89",
"118",
"95",
"91",
"106",
"98",
"97",
"94",
"108",
"104",
"104",
"112",
"97",
"92",
"119",
"99",
"95",
"104",
"105",
"115",
"109",
"91",
"97",
"107",
"84",
"88",
"99",
"117",
"103",
"95",
"92",
"117",
"105",
"84",
"110",
"81",
"92",
"101",
"107",
"99",
"93",
"98",
"111",
"81",
"110",
"94",
"88",
"95",
"100",
"74",
"72",
"109",
"89",
"82",
"98",
"92",
"99",
"87",
"115",
"97",
"91",
"86",
"106",
"89",
"98",
"73",
"93",
"71",
"117",
"108",
"103",
"84",
"97",
"89",
"82",
"79",
"89",
"100",
"82",
"95",
"87",
"84",
"81",
"93",
"88",
"110",
"99",
"86",
"88",
"77",
"110",
"88",
"80",
"82",
"79",
"109",
"82",
"88",
"83",
"93",
"87",
"70",
"95",
"89",
"97",
"79",
"79",
"68",
"87",
"77",
"79",
"74",
"70",
"91",
"103",
"94",
"97",
"70",
"101",
"71",
"64",
"92",
"92",
"67",
"86",
"72",
"83",
"70",
"95",
"80",
"85",
"82",
"71",
"77",
"77",
"80",
"73",
"79",
"75",
"79",
"91",
"98",
"87",
"64",
"73",
"77",
"81",
"58",
"81",
"77",
"94",
"72",
"73",
"80",
"73",
"76",
"95",
"86",
"71",
"105",
"84",
"73",
"76",
"87",
"84",
"79",
"84",
"73",
"107",
"77",
"91",
"80",
"98",
"89",
"99",
"91",
"79",
"76",
"73",
"85",
"79",
"77",
"83",
"85",
"93",
"74",
"89",
"71",
"93",
"88",
"93",
"100",
"89",
"83",
"87",
"94",
"86",
"97",
"98",
"75",
"80",
"83",
"76",
"95",
"95",
"91",
"92",
"95",
"87",
"114",
"94",
"92",
"114",
"99",
"115",
"98",
"109",
"98",
"121",
"101",
"123",
"120",
"146",
"136",
"166",
"133",
"159",
"186",
"160",
"166",
"191",
"212",
"241",
"192",
"236",
"259",
"309",
"283",
"341",
"363",
"377",
"406",
"426",
"449",
"439",
"461",
"476",
"478",
"525",
"523",
"535",
"459",
"561",
"469",
"515",
"473",
"491",
"474",
"474",
"417",
"418",
"387",
"385",
"324",
"331",
"280",
"230",
"252",
"235",
"201",
"196",
"180",
"164",
"171",
"146",
"143",
"127",
"136",
"132",
"126",
"114",
"118",
"134",
"144",
"159",
"167",
"204",
"207",
"222",
"241",
"246",
"297",
"319",
"300",
"351",
"346",
"324",
"322",
"311",
"290",
"284",
"229",
"222",
"174",
"186",
"124",
"124",
"117",
"116",
"103",
"85",
"88",
"67",
"63",
"77",
"63",
"39600",
"Channel_info_start",
"Channel : Mg",
"Points : 0",
"Range : 0.000000 - 0.000000",
"Step : 0.010000",
"Channel_info_end",
"Channel_info_start",
"Channel : Al",
"Points : 0",
"Range : 0.000000 - 0.000000",
"Step : 0.010000",
"Channel_info_end",
"Channel_info_start",
"Channel : Si",
"Points : 0",
"Range : 0.000000 - 0.000000",
"Step : 0.010000",
"Channel_info_end",
"Channel_info_start",
"Channel : P ",
"Points : 0",
"Range : 0.000000 - 0.000000",
"Step : 0.010000",
"Channel_info_end",
"Channel_info_start",
"Channel : S ",
"Points : 0",
"Range : 0.000000 - 0.000000",
"Step : 0.010000",
"Channel_info_end",
"Channel_info_start",
"Channel : Cl",
"Points : 0",
"Range : 0.000000 - 0.000000",
"Step : 0.010000",
"Channel_info_end",
"Channel_info_start",
"Channel : K ",
"Points : 0",
"Range : 0.000000 - 0.000000",
"Step : 0.010000",
"Channel_info_end",
"Channel_info_start",
"Channel : Ca",
"Points : 0",
"Range : 0.000000 - 0.000000",
"Step : 0.010000",
"Channel_info_end",
"Channel_info_start",
"Channel : Ti",
"Points : 0",
"Range : 0.000000 - 0.000000",
"Step : 0.010000",
"Channel_info_end",
"Channel_info_start",
"Channel : V ",
"Points : 0",
"Range : 0.000000 - 0.000000",
"Step : 0.010000",
"Channel_info_end",
"Channel_info_start",
"Channel : Cr",
"Points : 0",
"Range : 0.000000 - 0.000000",
"Step : 0.010000",
"Channel_info_end",
"Channel_info_start",
"Channel : Mn",
"Points : 0",
"Range : 0.000000 - 0.000000",
"Step : 0.010000",
"Channel_info_end",
"Channel_info_start",
"Channel : Fe",
"Points : 0",
"Range : 0.000000 - 0.000000",
"Step : 0.010000",
"Channel_info_end",
"Channel_info_start",
"Channel : Cu",
"Points : 0",
"Range : 0.000000 - 0.000000",
"Step : 0.010000",
"Channel_info_end",
"Channel_info_start",
"Channel : Zn",
"Points : 0",
"Range : 0.000000 - 0.000000",
"Step : 0.010000",
"Channel_info_end",
"Channel_info_start",
"Channel : Sr",
"Points : 0",
"Range : 0.000000 - 0.000000",
"Step : 0.010000",
"Channel_info_end",
"Channel_info_start",
"Channel : Pb",
"Points : 0",
"Range : 0.000000 - 0.000000",
"Step : 0.010000",
"Channel_info_end",
"",
"Qualitative Result",
"--------------------------------------------------------------------------------",
"Element :  Nd, Mg, P , Ca, La, Tm, Cu, Ru",
"",
"Peak List",
"--------------------------------------------------------------------------------",
"Channel               Line        keV     Net Int.(cps/uA)",
"--------------------------------------------------------------------------------",
"Na                    NdMa         1.02     0.045",
"                      MgKa         1.21     0.008",
"                      P Ka         2.00     0.018",
"                      NdLaESC      3.47     0.018",
"                      CaKa         3.68     0.286",
"                      CaKb         4.01     0.040",
"                      NdLL         4.63     0.108",
"                      LaLa         4.63     0.045",
"                      NdLa         5.22     3.601",
"                      NdLb1        5.72     2.297",
"                      NdLb2        6.08     0.594",
"                      NdLg1        6.58     0.325",
"                      NdLg2        6.87     0.153",
"                      TmLa         7.10     0.029",
"                      TmLb1        8.10     0.016",
"                      CuKa         8.10     0.008",
"                      RuKa        19.20     0.142",
"                      ----        19.48     0.035",
"--------------------------------------------------------------------------------",
"",
"Quantitative Result",
"--------------------------------------------------------------------------------",
"Analyte               Result             Std.Dev. Proc.-Calc. Line Intensity(cps/uA)",
"--------------------------------------------------------------------------------",
"====[No. 1 Layer]====< Layer1               >===============================",
"Layer1                   2.689 ug/cm2    -------- Flux       -------- --------",
"Mg                       2.689 ug/cm2    -------- ********** -------- --------",