File: inputs/edxCalibration/edx_raw/2010/junho/Ni 15757.20100611011016.csv
"Sample    : Ni 15757",
"Operator  : Luís",
"Comment  : cubatao-g-policarbonato",
"Group     : kerr2007ag180cal_lt",
"Date       : 2010-06-11 01:04:12",
"",
"Mesurement Condition",
"------------------------------------------------------------------------------------",
"Instrument : 700HS2   Atmosphere : Vac.   Collimator : 10(mm)   Spin : No",
"------------------------------------------------------------------------------------",
"Analyte               TG kV   uA      FI Acq.(keV)  Anal.(keV)  Time(sec)     DT(%)",
"------------------------------------------------------------------------------------",
"Na                    Rh 50  168-Auto Al  0 - 20    0.8 - 1.2   Live -  179   16",
"",
"<Profile>",
"Channel_info_start",
"Channel : Na",
"Points : 2048",
"Range : 0.000000 - 20.48",
"Step : 0.010000",
"Channel_info_end",
"0",
"0",
"0",
"0",
"0",
"0",
"0",
"0",
"0",
"0",
"0",
"0",
"0",
"0",
"0",
"7",
"4",
"9",
"14",
"14",
"12",
"9",
"8",
"7",
"9",
"15",
"9",
"15",
"11",
"11",
"15",
"11",
"7",
"10",
"13",
"15",
"16",
"15",
"35",
"39",
"46",
"91",
"112",
"126",
"127",
"97",
"79",
"40",
"40",
"27",
"19",
"13",
"13",
"4",
"9",
"10",
"13",
"11",
"4",
"12",
"7",
"13",
"7",
"9",
"11",
"13",
"9",
"10",
"9",
"9",
"8",
"12",
"11",
"16",
"11",
"17",
"12",
"8",
"5",
"16",
"8",
"13",
"17",
"12",
"22",
"17",
"24",
"17",
"13",
"30",
"21",
"16",
"15",
"12",
"7",
"8",
"20",
"23",
"38",
"30",
"38",
"44",
"38",
"28",
"13",
"15",
"8",
"12",
"10",
"13",
"14",
"14",
"17",
"13",
"13",
"11",
"11",
"13",
"9",
"9",
"11",
"11",
"11",
"8",
"9",
"11",
"11",
"7",
"10",
"14",
"15",
"11",
"12",
"20",
"22",
"23",
"12",
"9",
"15",
"13",
"9",
"19",
"8",
"9",
"9",
"12",
"13",
"9",
"5",
"4",
"12",
"10",
"9",
"11",
"10",
"4",
"20",
"13",
"15",
"7",
"13",
"12",
"10",
"13",
"11",
"15",
"13",
"15",
"12",
"13",
"12",
"11",
"10",
"13",
"16",
"14",
"43",
"33",
"60",
"84",
"130",
"186",
"294",
"354",
"375",
"394",
"341",
"260",
"157",
"126",
"83",
"69",
"42",
"46",
"51",
"36",
"43",
"40",
"54",
"58",
"69",
"50",
"47",
"54",
"47",
"46",
"36",
"10",
"21",
"21",
"15",
"20",
"21",
"22",
"23",
"25",
"20",
"33",
"26",
"25",
"36",
"31",
"24",
"31",
"23",
"32",
"38",
"33",
"43",
"38",
"35",
"33",
"39",
"27",
"34",
"35",
"39",
"26",
"23",
"30",
"26",
"31",
"27",
"26",
"42",
"23",
"26",
"25",
"23",
"21",
"33",
"28",
"23",
"16",
"40",
"36",
"24",
"28",
"37",
"27",
"17",
"28",
"25",
"35",
"27",
"27",
"33",
"23",
"33",
"43",
"39",
"33",
"34",
"25",
"52",
"31",
"31",
"39",
"44",
"39",
"63",
"68",
"81",
"75",
"116",
"114",
"120",
"126",
"94",
"87",
"71",
"60",
"67",
"49",
"52",
"54",
"42",
"63",
"52",
"59",
"66",
"54",
"66",
"60",
"60",
"57",
"60",
"85",
"75",
"79",
"67",
"69",
"69",
"67",
"75",
"103",
"83",
"104",
"102",
"101",
"113",
"84",
"96",
"82",
"120",
"84",
"81",
"78",
"78",
"78",
"79",
"80",
"71",
"78",
"72",
"82",
"84",
"74",
"69",
"77",
"72",
"97",
"80",
"80",
"64",
"84",
"106",
"112",
"99",
"112",
"114",
"125",
"129",
"127",
"122",
"126",
"157",
"172",
"184",
"185",
"240",
"260",
"439",
"737",
"1347",
"2480",
"4614",
"7333",
"12128",
"16866",
"22882",
"27369",
"32067",
"33325",
"33186",
"29250",
"25034",
"18904",
"13967",
"9180",
"5687",
"3110",
"1846",
"934",
"532",
"254",
"177",
"152",
"134",
"129",
"122",
"117",
"114",
"107",
"107",
"129",
"150",
"134",
"145",
"157",
"184",
"238",
"289",
"345",
"504",
"727",
"1098",
"1474",
"2103",
"2765",
"3484",
"3957",
"4503",
"4320",
"4237",
"3701",
"3099",
"2350",
"1638",
"1095",
"754",
"435",
"290",
"163",
"126",
"78",
"82",
"98",
"90",
"91",
"96",
"90",
"95",
"99",
"82",
"70",
"71",
"67",
"72",
"66",
"54",
"52",
"59",
"57",
"54",
"63",
"77",
"48",
"60",
"71",
"57",
"56",
"54",
"59",
"64",
"59",
"58",
"54",
"70",
"59",
"60",
"72",
"59",
"66",
"60",
"51",
"67",
"51",
"64",
"48",
"70",
"70",
"56",
"58",
"67",
"78",
"80",
"75",
"60",
"71",
"68",
"64",
"68",
"70",
"61",
"57",
"69",
"78",
"75",
"77",
"70",
"59",
"64",
"44",
"63",
"62",
"63",
"59",
"64",
"71",
"62",
"68",
"62",
"63",
"48",
"70",
"52",
"44",
"67",
"60",
"55",
"51",
"57",
"61",
"45",
"59",
"56",
"59",
"48",
"66",
"44",
"54",
"51",
"60",
"58",
"58",
"52",
"62",
"62",
"54",
"59",
"57",
"54",
"60",
"51",
"51",
"57",
"73",
"79",
"55",
"67",
"51",
"60",
"71",
"56",
"50",
"63",
"51",
"62",
"61",
"64",
"62",
"50",
"56",
"58",
"61",
"69",
"62",
"51",
"70",
"60",
"50",
"50",
"68",
"69",
"64",
"50",
"45",
"57",
"58",
"47",
"47",
"51",
"42",
"64",
"56",
"42",
"67",
"56",
"51",
"68",
"54",
"48",
"48",
"64",
"28",
"62",
"51",
"47",
"56",
"58",
"39",
"47",
"56",
"56",
"44",
"51",
"46",
"42",
"69",
"57",
"55",
"48",
"46",
"59",
"44",
"51",
"49",
"55",
"43",
"49",
"43",
"63",
"62",
"56",
"35",
"49",
"56",
"70",
"43",
"46",
"55",
"48",
"54",
"55",
"59",
"64",
"37",
"45",
"54",
"48",
"47",
"56",
"54",
"59",
"44",
"40",
"52",
"44",
"49",
"37",
"57",
"55",
"56",
"45",
"52",
"42",
"49",
"52",
"59",
"50",
"46",
"46",
"51",
"50",
"59",
"59",
"47",
"49",
"40",
"60",
"43",
"45",
"39",
"66",
"28",
"51",
"52",
"42",
"40",
"39",
"37",
"57",
"64",
"57",
"44",
"63",
"34",
"42",
"52",
"44",
"56",
"43",
"56",
"44",
"51",
"64",
"45",
"59",
"48",
"40",
"46",
"52",
"40",
"49",
"37",
"47",
"43",
"40",
"44",
"45",
"44",
"36",
"45",
"45",
"57",
"44",
"44",
"44",
"45",
"45",
"39",
"33",
"56",
"44",
"51",
"43",
"43",
"44",
"45",
"49",
"58",
"42",
"40",
"46",
"44",
"47",
"48",
"34",
"48",
"44",
"39",
"47",
"40",
"48",
"32",
"48",
"38",
"48",
"55",
"73",
"64",
"80",
"92",
"104",
"86",
"84",
"99",
"117",
"86",
"104",
"81",
"68",
"69",
"58",
"46",
"54",
"43",
"43",
"38",
"45",
"48",
"38",
"39",
"44",
"31",
"27",
"47",
"44",
"35",
"38",
"31",
"38",
"42",
"32",
"34",
"37",
"34",
"42",
"58",
"57",
"30",
"61",
"48",
"58",
"59",
"48",
"46",
"49",
"31",
"48",
"46",
"48",
"33",
"46",
"44",
"37",
"45",
"32",
"27",
"35",
"43",
"42",
"39",
"36",
"33",
"32",
"36",
"34",
"31",
"44",
"28",
"32",
"39",
"28",
"28",
"52",
"27",
"38",
"43",
"38",
"37",
"33",
"48",
"32",
"50",
"48",
"45",
"36",
"37",
"34",
"35",
"44",
"36",
"38",
"34",
"40",
"38",
"37",
"28",
"32",
"32",
"30",
"44",
"36",
"49",
"23",
"36",
"25",
"31",
"26",
"39",
"33",
"34",
"42",
"36",
"35",
"35",
"36",
"33",
"25",
"25",
"32",
"36",
"44",
"34",
"56",
"39",
"30",
"42",
"38",
"26",
"36",
"39",
"47",
"35",
"24",
"40",
"40",
"30",
"35",
"43",
"28",
"35",
"43",
"33",
"33",
"31",
"39",
"36",
"44",
"30",
"26",
"37",
"34",
"44",
"40",
"39",
"46",
"35",
"47",
"44",
"35",
"37",
"43",
"47",
"35",
"34",
"38",
"44",
"42",
"30",
"54",
"44",
"42",
"33",
"42",
"37",
"56",
"69",
"37",
"58",
"51",
"52",
"60",
"47",
"43",
"49",
"58",
"62",
"51",
"63",
"70",
"62",
"80",
"81",
"95",
"78",
"75",
"106",
"101",
"121",
"104",
"149",
"141",
"160",
"161",
"166",
"185",
"208",
"224",
"213",
"225",
"224",
"261",
"258",
"256",
"262",
"245",
"260",
"304",
"215",
"293",
"222",
"256",
"219",
"209",
"200",
"181",
"162",
"198",
"175",
"140",
"118",
"115",
"115",
"121",
"97",
"91",
"82",
"92",
"70",
"83",
"58",
"51",
"49",
"46",
"55",
"62",
"48",
"60",
"57",
"66",
"82",
"78",
"89",
"89",
"80",
"107",
"91",
"125",
"119",
"114",
"133",
"117",
"110",
"120",
"105",
"103",
"91",
"74",
"80",
"71",
"68",
"60",
"44",
"38",
"36",
"47",
"36",
"17",
"33",
"32",
"39",
"17365",
"Channel_info_start",
"Channel : Mg",
"Points : 0",
"Range : 0.000000 - 0.000000",
"Step : 0.010000",
"Channel_info_end",
"Channel_info_start",
"Channel : Al",
"Points : 0",
"Range : 0.000000 - 0.000000",
"Step : 0.010000",
"Channel_info_end",
"Channel_info_start",
"Channel : Si",
"Points : 0",
"Range : 0.000000 - 0.000000",
"Step : 0.010000",
"Channel_info_end",
"Channel_info_start",
"Channel : P ",
"Points : 0",
"Range : 0.000000 - 0.000000",
"Step : 0.010000",
"Channel_info_end",
"Channel_info_start",
"Channel : S ",
"Points : 0",
"Range : 0.000000 - 0.000000",
"Step : 0.010000",
"Channel_info_end",
"Channel_info_start",
"Channel : Cl",
"Points : 0",
"Range : 0.000000 - 0.000000",
"Step : 0.010000",
"Channel_info_end",
"Channel_info_start",
"Channel : K ",
"Points : 0",
"Range : 0.000000 - 0.000000",
"Step : 0.010000",
"Channel_info_end",
"Channel_info_start",
"Channel : Ca",
"Points : 0",
"Range : 0.000000 - 0.000000",
"Step : 0.010000",
"Channel_info_end",
"Channel_info_start",
"Channel : Ti",
"Points : 0",
"Range : 0.000000 - 0.000000",
"Step : 0.010000",
"Channel_info_end",
"Channel_info_start",
"Channel : V ",
"Points : 0",
"Range : 0.000000 - 0.000000",
"Step : 0.010000",
"Channel_info_end",
"Channel_info_start",
"Channel : Cr",
"Points : 0",
"Range : 0.000000 - 0.000000",
"Step : 0.010000",
"Channel_info_end",
"Channel_info_start",
"Channel : Mn",
"Points : 0",
"Range : 0.000000 - 0.000000",
"Step : 0.010000",
"Channel_info_end",
"Channel_info_start",
"Channel : Fe",
"Points : 0",
"Range : 0.000000 - 0.000000",
"Step : 0.010000",
"Channel_info_end",
"Channel_info_start",
"Channel : Cu",
"Points : 0",
"Range : 0.000000 - 0.000000",
"Step : 0.010000",
"Channel_info_end",
"Channel_info_start",
"Channel : Zn",
"Points : 0",
"Range : 0.000000 - 0.000000",
"Step : 0.010000",
"Channel_info_end",
"Channel_info_start",
"Channel : Sr",
"Points : 0",
"Range : 0.000000 - 0.000000",
"Step : 0.010000",
"Channel_info_end",
"Channel_info_start",
"Channel : Pb",
"Points : 0",
"Range : 0.000000 - 0.000000",
"Step : 0.010000",
"Channel_info_end",
"",
"Qualitative Result",
"--------------------------------------------------------------------------------",
"Element :  Ni, P , Ca, Rh",
"",
"Peak List",
"--------------------------------------------------------------------------------",
"Channel               Line        keV     Net Int.(cps/uA)",
"--------------------------------------------------------------------------------",
"Na                    NiLa         0.86     0.046",
"                      P Ka         2.01     0.013",
"                      CaKa         3.69     0.168",
"                      CaKb         3.99     0.023",
"                      NiKaESC      5.73     0.039",
"                      NiKa         7.46    18.949",
"                      NiKb         8.24     2.509",
"                      NiKaSUM     14.86     0.034",
"                      RhKaC       19.12     0.143",
"                      ----        19.37     0.079",
"                      RhKa        20.12     0.067",
"--------------------------------------------------------------------------------",
"",
"Quantitative Result",
"--------------------------------------------------------------------------------",
"Analyte               Result             Std.Dev. Proc.-Calc. Line Intensity(cps/uA)",
"--------------------------------------------------------------------------------",
"====[No. 1 Layer]====< Layer1               >===============================",
"Layer1                   0.000 ug/cm2    -------- Flux       -------- --------",