File: inputs/edxCalibration/edx_raw/2010/junho/Pb 15772.20100526013406.csv
"Sample    : Pb 15772",
"Operator  : luisf",
"Comment  : cubatao-g-policarbonato",
"Group     : kerr2007ag180cal_lt",
"Date       : 2010-05-26 01:30:03",
"",
"Mesurement Condition",
"------------------------------------------------------------------------------------",
"Instrument : 700HS2   Atmosphere : Vac.   Collimator : 10(mm)   Spin : No",
"------------------------------------------------------------------------------------",
"Analyte               TG kV   uA      FI Acq.(keV)  Anal.(keV)  Time(sec)     DT(%)",
"------------------------------------------------------------------------------------",
"Na                    Rh 50  152-Auto Al  0 - 20    0.8 - 1.2   Live -  179   15",
"",
"<Profile>",
"Channel_info_start",
"Channel : Na",
"Points : 2048",
"Range : 0.000000 - 20.48",
"Step : 0.010000",
"Channel_info_end",
"0",
"0",
"0",
"0",
"0",
"0",
"0",
"0",
"0",
"0",
"0",
"0",
"0",
"0",
"0",
"15",
"25",
"22",
"23",
"24",
"18",
"30",
"34",
"30",
"24",
"29",
"35",
"61",
"75",
"81",
"96",
"90",
"85",
"77",
"83",
"87",
"65",
"54",
"55",
"35",
"34",
"36",
"35",
"24",
"27",
"24",
"33",
"36",
"37",
"27",
"30",
"28",
"29",
"24",
"31",
"16",
"23",
"23",
"24",
"28",
"30",
"24",
"21",
"24",
"25",
"18",
"33",
"34",
"20",
"30",
"34",
"33",
"33",
"31",
"29",
"29",
"23",
"33",
"44",
"37",
"40",
"33",
"46",
"49",
"46",
"55",
"63",
"75",
"110",
"162",
"276",
"307",
"302",
"288",
"260",
"186",
"151",
"139",
"142",
"132",
"144",
"141",
"141",
"162",
"159",
"196",
"208",
"191",
"265",
"278",
"284",
"334",
"478",
"778",
"1308",
"2068",
"3050",
"3727",
"4226",
"4286",
"3887",
"3671",
"3415",
"3000",
"2490",
"1725",
"1237",
"784",
"435",
"344",
"298",
"344",
"401",
"420",
"364",
"356",
"258",
"189",
"121",
"98",
"88",
"73",
"70",
"74",
"59",
"73",
"60",
"60",
"68",
"81",
"89",
"81",
"104",
"136",
"175",
"154",
"169",
"189",
"127",
"125",
"87",
"68",
"64",
"46",
"27",
"24",
"36",
"24",
"24",
"18",
"23",
"24",
"31",
"25",
"29",
"33",
"44",
"46",
"51",
"99",
"117",
"159",
"246",
"295",
"296",
"351",
"276",
"203",
"180",
"113",
"72",
"57",
"51",
"33",
"39",
"35",
"40",
"37",
"64",
"59",
"67",
"43",
"64",
"51",
"44",
"33",
"36",
"28",
"23",
"23",
"15",
"30",
"18",
"22",
"26",
"33",
"37",
"30",
"30",
"26",
"43",
"24",
"26",
"36",
"41",
"33",
"42",
"41",
"28",
"36",
"42",
"54",
"38",
"33",
"41",
"31",
"36",
"40",
"26",
"39",
"43",
"43",
"54",
"37",
"44",
"44",
"43",
"43",
"43",
"43",
"37",
"37",
"36",
"61",
"47",
"42",
"34",
"48",
"52",
"42",
"37",
"38",
"50",
"31",
"38",
"36",
"37",
"39",
"43",
"42",
"64",
"54",
"50",
"51",
"43",
"41",
"48",
"46",
"50",
"43",
"38",
"51",
"57",
"53",
"37",
"52",
"56",
"54",
"49",
"52",
"57",
"69",
"51",
"53",
"53",
"61",
"72",
"67",
"70",
"53",
"70",
"60",
"66",
"62",
"68",
"61",
"78",
"55",
"68",
"64",
"86",
"73",
"67",
"81",
"79",
"92",
"92",
"101",
"103",
"108",
"95",
"96",
"102",
"113",
"118",
"90",
"76",
"92",
"95",
"72",
"95",
"106",
"106",
"74",
"110",
"93",
"83",
"91",
"77",
"68",
"72",
"105",
"88",
"90",
"74",
"95",
"72",
"88",
"85",
"76",
"98",
"86",
"111",
"61",
"85",
"67",
"81",
"68",
"87",
"80",
"73",
"66",
"82",
"83",
"83",
"86",
"94",
"92",
"102",
"78",
"104",
"92",
"87",
"81",
"98",
"90",
"104",
"110",
"99",
"88",
"105",
"99",
"83",
"85",
"90",
"107",
"103",
"81",
"107",
"85",
"86",
"100",
"91",
"107",
"101",
"96",
"123",
"138",
"116",
"121",
"134",
"119",
"125",
"123",
"119",
"117",
"127",
"115",
"88",
"111",
"108",
"75",
"101",
"91",
"87",
"93",
"85",
"86",
"112",
"91",
"86",
"96",
"92",
"94",
"101",
"110",
"119",
"95",
"114",
"132",
"121",
"124",
"147",
"125",
"134",
"136",
"108",
"104",
"108",
"105",
"143",
"117",
"106",
"104",
"120",
"106",
"115",
"104",
"126",
"146",
"159",
"170",
"250",
"307",
"397",
"416",
"554",
"620",
"713",
"653",
"626",
"604",
"555",
"502",
"421",
"330",
"244",
"192",
"171",
"128",
"132",
"128",
"107",
"112",
"111",
"104",
"107",
"101",
"107",
"93",
"117",
"95",
"94",
"98",
"102",
"85",
"101",
"82",
"91",
"86",
"116",
"95",
"101",
"89",
"115",
"99",
"101",
"92",
"108",
"102",
"117",
"112",
"112",
"110",
"113",
"92",
"115",
"116",
"119",
"132",
"128",
"162",
"241",
"286",
"386",
"601",
"837",
"1234",
"1714",
"2372",
"3410",
"4339",
"5934",
"6939",
"8554",
"9301",
"10336",
"10240",
"10253",
"9321",
"8409",
"6931",
"5730",
"4227",
"3127",
"2069",
"1446",
"931",
"642",
"413",
"261",
"210",
"158",
"141",
"140",
"107",
"107",
"88",
"123",
"111",
"105",
"100",
"98",
"100",
"91",
"99",
"106",
"85",
"103",
"120",
"155",
"137",
"189",
"176",
"218",
"201",
"233",
"230",
"214",
"221",
"208",
"176",
"181",
"158",
"124",
"118",
"112",
"100",
"81",
"87",
"87",
"85",
"89",
"70",
"77",
"92",
"83",
"106",
"79",
"79",
"94",
"82",
"101",
"115",
"104",
"95",
"121",
"146",
"126",
"111",
"136",
"162",
"203",
"196",
"243",
"296",
"304",
"338",
"411",
"376",
"412",
"460",
"488",
"469",
"517",
"498",
"574",
"582",
"634",
"756",
"1025",
"1219",
"1628",
"2233",
"3035",
"3681",
"4747",
"5342",
"6259",
"6550",
"6887",
"6921",
"6824",
"5973",
"5587",
"4595",
"3957",
"2971",
"2396",
"1778",
"1466",
"1084",
"901",
"669",
"610",
"495",
"472",
"399",
"411",
"382",
"382",
"352",
"333",
"345",
"315",
"268",
"210",
"178",
"166",
"145",
"120",
"113",
"112",
"112",
"116",
"102",
"99",
"94",
"113",
"95",
"94",
"93",
"85",
"69",
"78",
"67",
"68",
"61",
"70",
"59",
"56",
"67",
"67",
"74",
"53",
"73",
"69",
"50",
"63",
"69",
"80",
"49",
"65",
"56",
"49",
"61",
"61",
"59",
"59",
"67",
"63",
"76",
"63",
"60",
"61",
"59",
"82",
"72",
"72",
"94",
"98",
"112",
"94",
"105",
"75",
"85",
"92",
"102",
"82",
"95",
"74",
"90",
"82",
"69",
"91",
"120",
"134",
"167",
"218",
"307",
"433",
"477",
"575",
"706",
"822",
"903",
"1047",
"963",
"1009",
"975",
"956",
"820",
"726",
"634",
"535",
"439",
"365",
"282",
"267",
"257",
"235",
"263",
"272",
"248",
"284",
"310",
"327",
"345",
"327",
"338",
"332",
"280",
"299",
"235",
"234",
"199",
"141",
"130",
"124",
"100",
"105",
"80",
"66",
"67",
"75",
"49",
"59",
"55",
"35",
"66",
"54",
"48",
"67",
"74",
"79",
"78",
"89",
"81",
"77",
"82",
"75",
"73",
"82",
"74",
"63",
"64",
"39",
"43",
"54",
"40",
"50",
"52",
"39",
"35",
"44",
"33",
"44",
"51",
"51",
"50",
"42",
"53",
"51",
"53",
"53",
"37",
"42",
"39",
"51",
"59",
"49",
"36",
"52",
"40",
"43",
"49",
"31",
"30",
"44",
"51",
"35",
"41",
"41",
"55",
"40",
"37",
"53",
"27",
"37",
"39",
"44",
"48",
"48",
"46",
"49",
"43",
"37",
"39",
"51",
"53",
"44",
"34",
"49",
"40",
"46",
"37",
"39",
"47",
"46",
"50",
"49",
"44",
"38",
"42",
"38",
"27",
"48",
"38",
"33",
"40",
"42",
"34",
"43",
"34",
"38",
"39",
"42",
"42",
"36",
"44",
"44",
"44",
"39",
"47",
"51",
"41",
"53",
"41",
"40",
"34",
"47",
"43",
"48",
"44",
"47",
"37",
"57",
"46",
"41",
"37",
"41",
"48",
"41",
"48",
"48",
"41",
"56",
"43",
"39",
"44",
"38",
"53",
"35",
"36",
"46",
"53",
"51",
"57",
"55",
"50",
"53",
"47",
"52",
"50",
"50",
"39",
"64",
"53",
"64",
"47",
"64",
"62",
"62",
"69",
"83",
"76",
"76",
"88",
"75",
"79",
"112",
"96",
"108",
"117",
"136",
"120",
"128",
"177",
"168",
"189",
"172",
"185",
"202",
"202",
"206",
"189",
"279",
"215",
"230",
"227",
"242",
"220",
"266",
"196",
"227",
"223",
"226",
"203",
"196",
"197",
"184",
"152",
"146",
"167",
"117",
"145",
"117",
"94",
"98",
"103",
"92",
"75",
"66",
"65",
"68",
"66",
"65",
"54",
"63",
"57",
"74",
"65",
"92",
"100",
"99",
"131",
"119",
"164",
"176",
"196",
"203",
"192",
"229",
"192",
"229",
"255",
"214",
"202",
"206",
"183",
"166",
"172",
"136",
"120",
"111",
"72",
"62",
"62",
"54",
"37",
"40",
"31",
"29",
"51",
"20124",
"Channel_info_start",
"Channel : Mg",
"Points : 0",
"Range : 0.000000 - 0.000000",
"Step : 0.010000",
"Channel_info_end",
"Channel_info_start",
"Channel : Al",
"Points : 0",
"Range : 0.000000 - 0.000000",
"Step : 0.010000",
"Channel_info_end",
"Channel_info_start",
"Channel : Si",
"Points : 0",
"Range : 0.000000 - 0.000000",
"Step : 0.010000",
"Channel_info_end",
"Channel_info_start",
"Channel : P ",
"Points : 0",
"Range : 0.000000 - 0.000000",
"Step : 0.010000",
"Channel_info_end",
"Channel_info_start",
"Channel : S ",
"Points : 0",
"Range : 0.000000 - 0.000000",
"Step : 0.010000",
"Channel_info_end",
"Channel_info_start",
"Channel : Cl",
"Points : 0",
"Range : 0.000000 - 0.000000",
"Step : 0.010000",
"Channel_info_end",
"Channel_info_start",
"Channel : K ",
"Points : 0",
"Range : 0.000000 - 0.000000",
"Step : 0.010000",
"Channel_info_end",
"Channel_info_start",
"Channel : Ca",
"Points : 0",
"Range : 0.000000 - 0.000000",
"Step : 0.010000",
"Channel_info_end",
"Channel_info_start",
"Channel : Ti",
"Points : 0",
"Range : 0.000000 - 0.000000",
"Step : 0.010000",
"Channel_info_end",
"Channel_info_start",
"Channel : V ",
"Points : 0",
"Range : 0.000000 - 0.000000",
"Step : 0.010000",
"Channel_info_end",
"Channel_info_start",
"Channel : Cr",
"Points : 0",
"Range : 0.000000 - 0.000000",
"Step : 0.010000",
"Channel_info_end",
"Channel_info_start",
"Channel : Mn",
"Points : 0",
"Range : 0.000000 - 0.000000",
"Step : 0.010000",
"Channel_info_end",
"Channel_info_start",
"Channel : Fe",
"Points : 0",
"Range : 0.000000 - 0.000000",
"Step : 0.010000",
"Channel_info_end",
"Channel_info_start",
"Channel : Cu",
"Points : 0",
"Range : 0.000000 - 0.000000",
"Step : 0.010000",
"Channel_info_end",
"Channel_info_start",
"Channel : Zn",
"Points : 0",
"Range : 0.000000 - 0.000000",
"Step : 0.010000",
"Channel_info_end",
"Channel_info_start",
"Channel : Sr",
"Points : 0",
"Range : 0.000000 - 0.000000",
"Step : 0.010000",
"Channel_info_end",
"Channel_info_start",
"Channel : Pb",
"Points : 0",
"Range : 0.000000 - 0.000000",
"Step : 0.010000",
"Channel_info_end",
"",
"Qualitative Result",
"--------------------------------------------------------------------------------",
"Element :  Pb, S , Cl, Ca, Ir, Ru",
"",
"Peak List",
"--------------------------------------------------------------------------------",
"Channel               Line        keV     Net Int.(cps/uA)",
"--------------------------------------------------------------------------------",
"Na                    ----         0.60     0.028",
"                      ----         0.70     0.022",
"                      ----         1.83     0.105",
"                      PbMa         2.37     1.281",
"                      S Ka         2.37     0.598",
"                      ClKa         2.66     0.159",
"                      ----         3.11     0.058",
"                      CaKa         3.69     0.159",
"                      CaKb         4.04     0.022",
"                      PbLL         9.16     0.285",
"                      IrLa         9.16     0.123",
"                      PbLa        10.54     7.118",
"                      IrLb1       10.71     0.068",
"                      PbLn        11.34     0.097",
"                      PbLb4       12.24     0.168",
"                      PbLb1       12.61     4.798",
"                      ----        13.06     0.095",
"                      PbLg1       14.72     0.700",
"                      PbLg2       15.17     0.203",
"                      RuKa        19.20     0.145",
"                      ----        19.98     0.124",
"--------------------------------------------------------------------------------",
"",
"Quantitative Result",
"--------------------------------------------------------------------------------",
"Analyte               Result             Std.Dev. Proc.-Calc. Line Intensity(cps/uA)",
"--------------------------------------------------------------------------------",
"====[No. 1 Layer]====< Layer1               >===============================",
"Layer1                   0.000 ug/cm2    -------- Flux       -------- --------",