File: inputs/edxCalibration/edx_raw/2010/junho/Pb 31519.20100611041141.csv
"Sample    : Pb 31519",
"Operator  : Luís",
"Comment  : cubatao-g-policarbonato",
"Group     : kerr2007ag180cal_lt",
"Date       : 2010-06-11 04:07:37",
"",
"Mesurement Condition",
"------------------------------------------------------------------------------------",
"Instrument : 700HS2   Atmosphere : Vac.   Collimator : 10(mm)   Spin : No",
"------------------------------------------------------------------------------------",
"Analyte               TG kV   uA      FI Acq.(keV)  Anal.(keV)  Time(sec)     DT(%)",
"------------------------------------------------------------------------------------",
"Na                    Rh 50  168-Auto Al  0 - 20    0.8 - 1.2   Live -  180   15",
"",
"<Profile>",
"Channel_info_start",
"Channel : Na",
"Points : 2048",
"Range : 0.000000 - 20.48",
"Step : 0.010000",
"Channel_info_end",
"0",
"0",
"0",
"0",
"0",
"0",
"0",
"0",
"0",
"0",
"0",
"0",
"0",
"0",
"0",
"13",
"25",
"29",
"32",
"25",
"25",
"18",
"26",
"27",
"27",
"32",
"41",
"51",
"59",
"70",
"107",
"105",
"100",
"73",
"107",
"84",
"70",
"45",
"43",
"42",
"29",
"17",
"27",
"27",
"33",
"39",
"43",
"34",
"34",
"37",
"28",
"25",
"30",
"39",
"33",
"17",
"26",
"26",
"18",
"22",
"24",
"33",
"25",
"22",
"24",
"33",
"34",
"23",
"24",
"28",
"24",
"25",
"34",
"26",
"25",
"28",
"35",
"57",
"38",
"34",
"32",
"30",
"42",
"40",
"58",
"46",
"65",
"71",
"120",
"210",
"290",
"312",
"311",
"281",
"284",
"197",
"152",
"155",
"135",
"135",
"152",
"133",
"152",
"145",
"180",
"179",
"220",
"237",
"277",
"295",
"309",
"347",
"497",
"844",
"1350",
"2213",
"3164",
"3820",
"4344",
"4273",
"4053",
"3893",
"3522",
"3173",
"2529",
"1859",
"1241",
"795",
"474",
"340",
"326",
"334",
"446",
"453",
"416",
"319",
"279",
"171",
"147",
"84",
"80",
"87",
"74",
"76",
"62",
"62",
"60",
"53",
"68",
"64",
"79",
"85",
"104",
"112",
"164",
"182",
"177",
"172",
"158",
"115",
"83",
"65",
"38",
"51",
"33",
"23",
"22",
"17",
"34",
"21",
"24",
"24",
"16",
"28",
"34",
"36",
"50",
"48",
"59",
"78",
"132",
"186",
"263",
"337",
"372",
"331",
"357",
"261",
"182",
"115",
"102",
"57",
"58",
"38",
"39",
"40",
"33",
"41",
"54",
"57",
"49",
"83",
"64",
"58",
"38",
"35",
"35",
"30",
"25",
"24",
"35",
"22",
"29",
"23",
"23",
"36",
"24",
"30",
"35",
"28",
"40",
"46",
"25",
"38",
"40",
"41",
"38",
"50",
"50",
"52",
"47",
"42",
"51",
"45",
"32",
"42",
"47",
"50",
"45",
"39",
"48",
"34",
"52",
"37",
"40",
"45",
"49",
"43",
"53",
"43",
"59",
"43",
"48",
"28",
"41",
"53",
"41",
"42",
"43",
"32",
"57",
"47",
"52",
"40",
"43",
"49",
"47",
"62",
"39",
"49",
"41",
"57",
"49",
"35",
"51",
"47",
"57",
"55",
"51",
"43",
"65",
"58",
"46",
"54",
"40",
"57",
"51",
"49",
"57",
"65",
"65",
"62",
"57",
"41",
"53",
"63",
"68",
"77",
"67",
"63",
"73",
"72",
"75",
"66",
"63",
"62",
"74",
"70",
"75",
"86",
"79",
"57",
"87",
"75",
"74",
"99",
"98",
"91",
"101",
"82",
"105",
"90",
"99",
"94",
"95",
"83",
"84",
"83",
"86",
"92",
"104",
"66",
"84",
"87",
"99",
"82",
"88",
"89",
"87",
"105",
"99",
"88",
"107",
"92",
"110",
"95",
"110",
"99",
"85",
"88",
"102",
"108",
"94",
"102",
"110",
"89",
"94",
"78",
"88",
"99",
"92",
"98",
"85",
"103",
"104",
"82",
"120",
"96",
"111",
"110",
"86",
"102",
"111",
"101",
"97",
"104",
"90",
"110",
"85",
"100",
"94",
"115",
"98",
"105",
"95",
"91",
"108",
"100",
"100",
"91",
"79",
"110",
"88",
"111",
"121",
"100",
"117",
"114",
"112",
"134",
"134",
"117",
"124",
"132",
"129",
"144",
"100",
"110",
"95",
"95",
"117",
"104",
"100",
"109",
"112",
"95",
"107",
"91",
"102",
"95",
"122",
"105",
"105",
"113",
"95",
"83",
"113",
"137",
"122",
"104",
"115",
"137",
"117",
"141",
"114",
"130",
"130",
"136",
"112",
"116",
"127",
"117",
"134",
"111",
"109",
"100",
"115",
"110",
"136",
"137",
"153",
"195",
"263",
"309",
"386",
"522",
"615",
"673",
"738",
"751",
"688",
"615",
"580",
"502",
"399",
"317",
"245",
"185",
"166",
"163",
"127",
"109",
"121",
"122",
"105",
"101",
"125",
"140",
"135",
"101",
"100",
"114",
"101",
"107",
"115",
"114",
"101",
"98",
"98",
"97",
"101",
"110",
"104",
"109",
"127",
"128",
"114",
"117",
"109",
"91",
"127",
"110",
"120",
"123",
"128",
"138",
"130",
"116",
"127",
"132",
"155",
"182",
"226",
"311",
"426",
"649",
"907",
"1285",
"1939",
"2649",
"3648",
"4839",
"6178",
"7544",
"9126",
"9834",
"10776",
"10575",
"10462",
"9505",
"8327",
"6581",
"5529",
"4029",
"2945",
"1898",
"1294",
"812",
"562",
"361",
"281",
"182",
"155",
"136",
"133",
"119",
"112",
"116",
"123",
"113",
"120",
"104",
"119",
"114",
"101",
"96",
"115",
"110",
"136",
"147",
"137",
"166",
"184",
"176",
"235",
"212",
"230",
"221",
"212",
"219",
"217",
"191",
"176",
"165",
"129",
"138",
"96",
"95",
"97",
"99",
"96",
"108",
"89",
"76",
"83",
"94",
"98",
"94",
"90",
"90",
"104",
"88",
"75",
"103",
"89",
"89",
"119",
"116",
"147",
"126",
"155",
"191",
"204",
"245",
"269",
"267",
"322",
"339",
"413",
"422",
"451",
"468",
"509",
"527",
"575",
"527",
"575",
"616",
"693",
"762",
"1071",
"1318",
"1930",
"2526",
"3351",
"3982",
"4987",
"5752",
"6451",
"6877",
"7418",
"6878",
"6746",
"5897",
"5331",
"4472",
"3792",
"2839",
"2408",
"1655",
"1479",
"1071",
"850",
"702",
"574",
"489",
"437",
"437",
"394",
"403",
"410",
"360",
"387",
"347",
"288",
"247",
"260",
"202",
"191",
"184",
"149",
"120",
"112",
"110",
"114",
"102",
"85",
"87",
"109",
"82",
"90",
"85",
"87",
"78",
"87",
"88",
"68",
"75",
"66",
"68",
"61",
"61",
"70",
"59",
"55",
"80",
"66",
"54",
"76",
"75",
"50",
"82",
"73",
"51",
"64",
"66",
"72",
"67",
"58",
"58",
"62",
"58",
"70",
"64",
"61",
"90",
"67",
"79",
"76",
"98",
"82",
"98",
"110",
"91",
"128",
"99",
"113",
"104",
"108",
"99",
"86",
"94",
"91",
"108",
"122",
"134",
"172",
"212",
"279",
"340",
"462",
"540",
"645",
"747",
"909",
"969",
"1095",
"988",
"1070",
"965",
"888",
"832",
"691",
"614",
"487",
"404",
"332",
"306",
"278",
"247",
"235",
"271",
"301",
"287",
"348",
"320",
"379",
"376",
"375",
"364",
"371",
"311",
"294",
"234",
"217",
"203",
"142",
"146",
"139",
"101",
"85",
"90",
"74",
"64",
"63",
"65",
"43",
"55",
"58",
"60",
"71",
"59",
"82",
"64",
"83",
"79",
"91",
"83",
"100",
"91",
"102",
"71",
"62",
"71",
"70",
"68",
"73",
"68",
"65",
"71",
"48",
"39",
"57",
"38",
"57",
"52",
"53",
"51",
"43",
"37",
"51",
"54",
"55",
"46",
"50",
"36",
"43",
"55",
"55",
"66",
"48",
"51",
"53",
"38",
"52",
"38",
"47",
"51",
"45",
"41",
"43",
"54",
"58",
"51",
"58",
"45",
"45",
"41",
"38",
"48",
"54",
"43",
"42",
"43",
"38",
"49",
"63",
"34",
"42",
"51",
"54",
"46",
"59",
"40",
"39",
"48",
"37",
"32",
"54",
"37",
"52",
"37",
"52",
"36",
"43",
"47",
"41",
"43",
"35",
"37",
"42",
"36",
"53",
"37",
"27",
"49",
"59",
"42",
"47",
"49",
"64",
"48",
"50",
"41",
"43",
"35",
"41",
"36",
"43",
"49",
"61",
"40",
"50",
"54",
"42",
"46",
"49",
"45",
"32",
"39",
"45",
"49",
"42",
"49",
"59",
"29",
"45",
"54",
"61",
"49",
"48",
"48",
"46",
"51",
"53",
"43",
"58",
"53",
"62",
"53",
"66",
"47",
"64",
"48",
"62",
"58",
"43",
"68",
"50",
"65",
"63",
"67",
"77",
"70",
"75",
"87",
"86",
"85",
"82",
"105",
"100",
"110",
"104",
"126",
"152",
"150",
"155",
"167",
"186",
"197",
"197",
"202",
"233",
"239",
"258",
"266",
"247",
"246",
"297",
"260",
"310",
"239",
"266",
"213",
"238",
"227",
"222",
"210",
"211",
"210",
"167",
"162",
"160",
"150",
"141",
"146",
"124",
"124",
"130",
"112",
"91",
"91",
"91",
"88",
"83",
"65",
"63",
"78",
"70",
"62",
"78",
"80",
"104",
"104",
"121",
"153",
"140",
"176",
"201",
"205",
"256",
"222",
"237",
"263",
"276",
"235",
"237",
"217",
"233",
"174",
"141",
"149",
"128",
"115",
"102",
"72",
"77",
"45",
"58",
"36",
"47",
"46",
"49",
"48",
"21770",
"Channel_info_start",
"Channel : Mg",
"Points : 0",
"Range : 0.000000 - 0.000000",
"Step : 0.010000",
"Channel_info_end",
"Channel_info_start",
"Channel : Al",
"Points : 0",
"Range : 0.000000 - 0.000000",
"Step : 0.010000",
"Channel_info_end",
"Channel_info_start",
"Channel : Si",
"Points : 0",
"Range : 0.000000 - 0.000000",
"Step : 0.010000",
"Channel_info_end",
"Channel_info_start",
"Channel : P ",
"Points : 0",
"Range : 0.000000 - 0.000000",
"Step : 0.010000",
"Channel_info_end",
"Channel_info_start",
"Channel : S ",
"Points : 0",
"Range : 0.000000 - 0.000000",
"Step : 0.010000",
"Channel_info_end",
"Channel_info_start",
"Channel : Cl",
"Points : 0",
"Range : 0.000000 - 0.000000",
"Step : 0.010000",
"Channel_info_end",
"Channel_info_start",
"Channel : K ",
"Points : 0",
"Range : 0.000000 - 0.000000",
"Step : 0.010000",
"Channel_info_end",
"Channel_info_start",
"Channel : Ca",
"Points : 0",
"Range : 0.000000 - 0.000000",
"Step : 0.010000",
"Channel_info_end",
"Channel_info_start",
"Channel : Ti",
"Points : 0",
"Range : 0.000000 - 0.000000",
"Step : 0.010000",
"Channel_info_end",
"Channel_info_start",
"Channel : V ",
"Points : 0",
"Range : 0.000000 - 0.000000",
"Step : 0.010000",
"Channel_info_end",
"Channel_info_start",
"Channel : Cr",
"Points : 0",
"Range : 0.000000 - 0.000000",
"Step : 0.010000",
"Channel_info_end",
"Channel_info_start",
"Channel : Mn",
"Points : 0",
"Range : 0.000000 - 0.000000",
"Step : 0.010000",
"Channel_info_end",
"Channel_info_start",
"Channel : Fe",
"Points : 0",
"Range : 0.000000 - 0.000000",
"Step : 0.010000",
"Channel_info_end",
"Channel_info_start",
"Channel : Cu",
"Points : 0",
"Range : 0.000000 - 0.000000",
"Step : 0.010000",
"Channel_info_end",
"Channel_info_start",
"Channel : Zn",
"Points : 0",
"Range : 0.000000 - 0.000000",
"Step : 0.010000",
"Channel_info_end",
"Channel_info_start",
"Channel : Sr",
"Points : 0",
"Range : 0.000000 - 0.000000",
"Step : 0.010000",
"Channel_info_end",
"Channel_info_start",
"Channel : Pb",
"Points : 0",
"Range : 0.000000 - 0.000000",
"Step : 0.010000",
"Channel_info_end",
"",
"Qualitative Result",
"--------------------------------------------------------------------------------",
"Element :  Pb, S , Cl, Ca, Ir, Ru",
"",
"Peak List",
"--------------------------------------------------------------------------------",
"Channel               Line        keV     Net Int.(cps/uA)",
"--------------------------------------------------------------------------------",
"Na                    ----         0.60     0.028",
"                      ----         1.83     0.091",
"                      PbMa         2.36     1.197",
"                      S Ka         2.36     0.554",
"                      ClKa         2.66     0.146",
"                      ----         3.12     0.069",
"                      CaKa         3.68     0.168",
"                      CaKb         4.02     0.022",
"                      PbLL         9.17     0.266",
"                      IrLa         9.17     0.099",
"                      PbLa        10.54     6.649",
"                      IrLb1       10.71     0.054",
"                      PbLn        11.32     0.096",
"                      PbLb4       12.24     0.165",
"                      PbLb1       12.60     4.670",
"                      IrLg3       13.03     0.093",
"                      PbLg1       14.72     0.661",
"                      PbLg2       15.13     0.192",
"                      RuKa        19.19     0.147",
"                      ----        20.00     0.147",
"--------------------------------------------------------------------------------",
"",
"Quantitative Result",
"--------------------------------------------------------------------------------",
"Analyte               Result             Std.Dev. Proc.-Calc. Line Intensity(cps/uA)",
"--------------------------------------------------------------------------------",
"====[No. 1 Layer]====< Layer1               >===============================",
"Layer1                   0.000 ug/cm2    -------- Flux       -------- --------",