File: inputs/edxCalibration/edx_raw/2010/junho/Pb 31519.20100526013809.csv
"Sample    : Pb 31519",
"Operator  : luisf",
"Comment  : cubatao-g-policarbonato",
"Group     : kerr2007ag180cal_lt",
"Date       : 2010-05-26 01:34:05",
"",
"Mesurement Condition",
"------------------------------------------------------------------------------------",
"Instrument : 700HS2   Atmosphere : Vac.   Collimator : 10(mm)   Spin : No",
"------------------------------------------------------------------------------------",
"Analyte               TG kV   uA      FI Acq.(keV)  Anal.(keV)  Time(sec)     DT(%)",
"------------------------------------------------------------------------------------",
"Na                    Rh 50  168-Auto Al  0 - 20    0.8 - 1.2   Live -  179   15",
"",
"<Profile>",
"Channel_info_start",
"Channel : Na",
"Points : 2048",
"Range : 0.000000 - 20.48",
"Step : 0.010000",
"Channel_info_end",
"0",
"0",
"0",
"0",
"0",
"0",
"0",
"0",
"0",
"0",
"0",
"0",
"0",
"0",
"0",
"17",
"24",
"16",
"26",
"20",
"33",
"30",
"29",
"34",
"25",
"25",
"41",
"54",
"77",
"77",
"105",
"95",
"85",
"76",
"97",
"94",
"76",
"41",
"53",
"51",
"27",
"30",
"28",
"29",
"28",
"26",
"33",
"39",
"32",
"35",
"25",
"26",
"35",
"33",
"25",
"25",
"24",
"24",
"25",
"25",
"26",
"17",
"32",
"25",
"24",
"35",
"29",
"32",
"24",
"30",
"33",
"30",
"32",
"29",
"29",
"30",
"39",
"28",
"27",
"33",
"41",
"39",
"51",
"37",
"40",
"48",
"65",
"101",
"120",
"171",
"262",
"296",
"308",
"262",
"268",
"202",
"186",
"164",
"139",
"157",
"137",
"158",
"146",
"172",
"142",
"227",
"207",
"236",
"250",
"291",
"314",
"357",
"483",
"762",
"1362",
"2089",
"3019",
"3741",
"4272",
"4259",
"4235",
"3871",
"3542",
"3064",
"2512",
"1874",
"1250",
"768",
"459",
"378",
"347",
"388",
"413",
"437",
"432",
"389",
"250",
"183",
"136",
"92",
"77",
"89",
"70",
"80",
"67",
"60",
"66",
"79",
"51",
"61",
"74",
"95",
"128",
"141",
"147",
"182",
"182",
"177",
"134",
"135",
"108",
"78",
"59",
"41",
"47",
"30",
"27",
"22",
"33",
"13",
"22",
"32",
"21",
"25",
"13",
"38",
"46",
"55",
"70",
"91",
"154",
"209",
"280",
"307",
"371",
"350",
"334",
"226",
"170",
"116",
"80",
"63",
"52",
"44",
"29",
"32",
"47",
"50",
"50",
"52",
"60",
"63",
"72",
"70",
"48",
"28",
"23",
"30",
"22",
"20",
"28",
"22",
"23",
"26",
"24",
"24",
"22",
"27",
"17",
"29",
"32",
"32",
"38",
"30",
"38",
"35",
"34",
"39",
"48",
"42",
"41",
"37",
"47",
"41",
"42",
"66",
"44",
"46",
"32",
"40",
"37",
"41",
"40",
"37",
"37",
"44",
"35",
"39",
"47",
"45",
"38",
"42",
"35",
"36",
"37",
"42",
"45",
"46",
"52",
"40",
"42",
"53",
"51",
"55",
"44",
"58",
"54",
"61",
"52",
"47",
"61",
"60",
"61",
"50",
"65",
"55",
"48",
"61",
"58",
"47",
"65",
"47",
"66",
"51",
"61",
"40",
"66",
"63",
"41",
"48",
"58",
"66",
"64",
"60",
"58",
"62",
"55",
"62",
"70",
"53",
"58",
"57",
"61",
"77",
"76",
"66",
"64",
"71",
"70",
"78",
"80",
"78",
"86",
"75",
"94",
"90",
"77",
"87",
"88",
"80",
"90",
"94",
"86",
"91",
"88",
"85",
"96",
"84",
"83",
"89",
"87",
"101",
"109",
"84",
"102",
"94",
"94",
"78",
"84",
"86",
"94",
"94",
"78",
"97",
"77",
"86",
"85",
"71",
"103",
"99",
"101",
"88",
"92",
"84",
"95",
"94",
"90",
"101",
"108",
"89",
"89",
"102",
"90",
"86",
"57",
"110",
"95",
"109",
"95",
"100",
"92",
"80",
"91",
"103",
"104",
"82",
"88",
"84",
"119",
"92",
"111",
"94",
"98",
"85",
"102",
"101",
"108",
"97",
"115",
"89",
"87",
"92",
"96",
"86",
"111",
"112",
"117",
"113",
"135",
"132",
"148",
"138",
"139",
"153",
"138",
"135",
"96",
"111",
"91",
"94",
"90",
"101",
"101",
"86",
"103",
"107",
"110",
"89",
"102",
"99",
"89",
"88",
"99",
"88",
"111",
"99",
"109",
"129",
"107",
"135",
"153",
"114",
"133",
"137",
"124",
"107",
"104",
"109",
"136",
"109",
"135",
"120",
"103",
"108",
"113",
"99",
"137",
"115",
"148",
"123",
"124",
"178",
"232",
"326",
"415",
"459",
"557",
"695",
"635",
"737",
"743",
"628",
"600",
"508",
"438",
"312",
"271",
"220",
"160",
"150",
"131",
"122",
"107",
"105",
"134",
"109",
"119",
"119",
"100",
"95",
"113",
"123",
"89",
"101",
"102",
"88",
"89",
"105",
"110",
"110",
"100",
"91",
"105",
"108",
"105",
"101",
"124",
"119",
"116",
"108",
"109",
"121",
"115",
"116",
"127",
"122",
"97",
"97",
"113",
"128",
"159",
"182",
"208",
"257",
"403",
"561",
"843",
"1225",
"1849",
"2512",
"3291",
"4594",
"6046",
"7424",
"8727",
"9609",
"10517",
"10640",
"10621",
"9743",
"8762",
"7257",
"5868",
"4328",
"3213",
"2211",
"1475",
"923",
"668",
"437",
"276",
"198",
"161",
"148",
"131",
"121",
"129",
"117",
"111",
"111",
"89",
"111",
"90",
"110",
"100",
"125",
"132",
"113",
"120",
"139",
"156",
"159",
"176",
"199",
"200",
"212",
"269",
"246",
"263",
"215",
"219",
"196",
"175",
"166",
"153",
"124",
"114",
"107",
"103",
"103",
"85",
"89",
"95",
"84",
"97",
"87",
"83",
"73",
"85",
"88",
"92",
"77",
"101",
"73",
"90",
"88",
"102",
"114",
"125",
"152",
"144",
"169",
"200",
"225",
"270",
"286",
"324",
"325",
"373",
"407",
"435",
"444",
"554",
"548",
"568",
"583",
"606",
"552",
"674",
"779",
"954",
"1227",
"1779",
"2267",
"3125",
"3774",
"4749",
"5409",
"6373",
"6835",
"7078",
"6996",
"6988",
"6242",
"5593",
"4592",
"4005",
"3125",
"2595",
"1826",
"1545",
"1144",
"856",
"709",
"611",
"514",
"481",
"470",
"438",
"390",
"419",
"396",
"395",
"328",
"330",
"283",
"229",
"215",
"175",
"157",
"151",
"112",
"131",
"111",
"121",
"99",
"112",
"103",
"110",
"104",
"107",
"91",
"104",
"73",
"91",
"75",
"77",
"63",
"85",
"67",
"59",
"61",
"65",
"69",
"70",
"48",
"60",
"58",
"63",
"61",
"70",
"54",
"69",
"62",
"50",
"72",
"66",
"70",
"65",
"55",
"67",
"77",
"67",
"55",
"57",
"58",
"84",
"72",
"82",
"83",
"79",
"101",
"94",
"86",
"96",
"104",
"90",
"92",
"91",
"99",
"75",
"77",
"79",
"107",
"110",
"117",
"163",
"171",
"272",
"298",
"426",
"473",
"622",
"733",
"881",
"905",
"1102",
"1048",
"1005",
"976",
"1023",
"809",
"806",
"666",
"530",
"411",
"384",
"316",
"253",
"248",
"240",
"257",
"285",
"250",
"314",
"311",
"367",
"348",
"373",
"343",
"322",
"299",
"296",
"244",
"236",
"178",
"178",
"166",
"129",
"121",
"88",
"87",
"89",
"65",
"83",
"57",
"58",
"57",
"63",
"84",
"70",
"72",
"66",
"82",
"74",
"88",
"82",
"84",
"80",
"79",
"78",
"80",
"97",
"98",
"76",
"62",
"71",
"60",
"62",
"52",
"51",
"52",
"52",
"29",
"47",
"57",
"41",
"45",
"41",
"48",
"61",
"33",
"49",
"47",
"47",
"50",
"51",
"50",
"51",
"41",
"48",
"46",
"48",
"46",
"38",
"55",
"58",
"36",
"48",
"39",
"40",
"52",
"54",
"45",
"58",
"42",
"50",
"61",
"48",
"48",
"45",
"48",
"61",
"33",
"54",
"51",
"53",
"48",
"51",
"62",
"45",
"38",
"46",
"55",
"52",
"50",
"67",
"44",
"48",
"46",
"53",
"39",
"32",
"50",
"50",
"40",
"51",
"54",
"38",
"46",
"41",
"44",
"51",
"50",
"52",
"38",
"41",
"48",
"34",
"53",
"61",
"40",
"29",
"58",
"39",
"34",
"42",
"59",
"63",
"42",
"39",
"41",
"47",
"39",
"46",
"38",
"55",
"58",
"30",
"46",
"47",
"47",
"51",
"53",
"55",
"45",
"45",
"46",
"53",
"62",
"45",
"52",
"47",
"55",
"58",
"60",
"63",
"50",
"49",
"63",
"65",
"63",
"55",
"55",
"65",
"63",
"57",
"61",
"75",
"65",
"62",
"61",
"75",
"80",
"69",
"89",
"83",
"85",
"103",
"110",
"104",
"124",
"129",
"132",
"142",
"131",
"164",
"171",
"184",
"188",
"211",
"195",
"191",
"216",
"252",
"222",
"224",
"253",
"247",
"261",
"275",
"249",
"263",
"251",
"238",
"226",
"195",
"202",
"221",
"191",
"166",
"165",
"163",
"172",
"125",
"124",
"153",
"128",
"95",
"108",
"91",
"84",
"103",
"61",
"78",
"65",
"78",
"55",
"64",
"73",
"89",
"91",
"98",
"90",
"125",
"154",
"178",
"150",
"153",
"177",
"241",
"228",
"241",
"220",
"227",
"240",
"216",
"247",
"218",
"187",
"159",
"153",
"136",
"120",
"91",
"90",
"79",
"67",
"50",
"55",
"54",
"59",
"54",
"33",
"21936",
"Channel_info_start",
"Channel : Mg",
"Points : 0",
"Range : 0.000000 - 0.000000",
"Step : 0.010000",
"Channel_info_end",
"Channel_info_start",
"Channel : Al",
"Points : 0",
"Range : 0.000000 - 0.000000",
"Step : 0.010000",
"Channel_info_end",
"Channel_info_start",
"Channel : Si",
"Points : 0",
"Range : 0.000000 - 0.000000",
"Step : 0.010000",
"Channel_info_end",
"Channel_info_start",
"Channel : P ",
"Points : 0",
"Range : 0.000000 - 0.000000",
"Step : 0.010000",
"Channel_info_end",
"Channel_info_start",
"Channel : S ",
"Points : 0",
"Range : 0.000000 - 0.000000",
"Step : 0.010000",
"Channel_info_end",
"Channel_info_start",
"Channel : Cl",
"Points : 0",
"Range : 0.000000 - 0.000000",
"Step : 0.010000",
"Channel_info_end",
"Channel_info_start",
"Channel : K ",
"Points : 0",
"Range : 0.000000 - 0.000000",
"Step : 0.010000",
"Channel_info_end",
"Channel_info_start",
"Channel : Ca",
"Points : 0",
"Range : 0.000000 - 0.000000",
"Step : 0.010000",
"Channel_info_end",
"Channel_info_start",
"Channel : Ti",
"Points : 0",
"Range : 0.000000 - 0.000000",
"Step : 0.010000",
"Channel_info_end",
"Channel_info_start",
"Channel : V ",
"Points : 0",
"Range : 0.000000 - 0.000000",
"Step : 0.010000",
"Channel_info_end",
"Channel_info_start",
"Channel : Cr",
"Points : 0",
"Range : 0.000000 - 0.000000",
"Step : 0.010000",
"Channel_info_end",
"Channel_info_start",
"Channel : Mn",
"Points : 0",
"Range : 0.000000 - 0.000000",
"Step : 0.010000",
"Channel_info_end",
"Channel_info_start",
"Channel : Fe",
"Points : 0",
"Range : 0.000000 - 0.000000",
"Step : 0.010000",
"Channel_info_end",
"Channel_info_start",
"Channel : Cu",
"Points : 0",
"Range : 0.000000 - 0.000000",
"Step : 0.010000",
"Channel_info_end",
"Channel_info_start",
"Channel : Zn",
"Points : 0",
"Range : 0.000000 - 0.000000",
"Step : 0.010000",
"Channel_info_end",
"Channel_info_start",
"Channel : Sr",
"Points : 0",
"Range : 0.000000 - 0.000000",
"Step : 0.010000",
"Channel_info_end",
"Channel_info_start",
"Channel : Pb",
"Points : 0",
"Range : 0.000000 - 0.000000",
"Step : 0.010000",
"Channel_info_end",
"",
"Qualitative Result",
"--------------------------------------------------------------------------------",
"Element :  Pb, S , Cl, Ca, Ir, Ru",
"",
"Peak List",
"--------------------------------------------------------------------------------",
"Channel               Line        keV     Net Int.(cps/uA)",
"--------------------------------------------------------------------------------",
"Na                    ----         0.60     0.028",
"                      ----         0.69     0.023",
"                      ----         1.84     0.101",
"                      PbMa         2.37     1.212",
"                      S Ka         2.37     0.514",
"                      ClKa         2.66     0.149",
"                      ----         3.13     0.071",
"                      CaKa         3.68     0.162",
"                      CaKb         4.04     0.017",
"                      PbLL         9.18     0.269",
"                      IrLa         9.18     0.105",
"                      PbLa        10.54     6.736",
"                      IrLb1       10.71     0.058",
"                      PbLn        11.34     0.090",
"                      PbLb4       12.24     0.150",
"                      PbLb1       12.60     4.500",
"                      PbLg1       14.76     0.664",
"                      PbLg2       15.15     0.184",
"                      RuKa        19.18     0.135",
"                      ----        19.45     0.062",
"                      ----        20.00     0.138",
"--------------------------------------------------------------------------------",
"",
"Quantitative Result",
"--------------------------------------------------------------------------------",
"Analyte               Result             Std.Dev. Proc.-Calc. Line Intensity(cps/uA)",
"--------------------------------------------------------------------------------",
"====[No. 1 Layer]====< Layer1               >===============================",
"Layer1                   0.000 ug/cm2    -------- Flux       -------- --------",