File: inputs/edxCalibration/edx_raw/2010/junho/Pt 15770.20100611042346.csv
"Sample    : Pt 15770",
"Operator  : Luís",
"Comment  : cubatao-g-policarbonato",
"Group     : kerr2007ag180cal_lt",
"Date       : 2010-06-11 04:19:41",
"",
"Mesurement Condition",
"------------------------------------------------------------------------------------",
"Instrument : 700HS2   Atmosphere : Vac.   Collimator : 10(mm)   Spin : No",
"------------------------------------------------------------------------------------",
"Analyte               TG kV   uA      FI Acq.(keV)  Anal.(keV)  Time(sec)     DT(%)",
"------------------------------------------------------------------------------------",
"Na                    Rh 50  210-Auto Al  0 - 20    0.8 - 1.2   Live -  180   15",
"",
"<Profile>",
"Channel_info_start",
"Channel : Na",
"Points : 2048",
"Range : 0.000000 - 20.48",
"Step : 0.010000",
"Channel_info_end",
"0",
"0",
"0",
"0",
"0",
"0",
"0",
"0",
"0",
"0",
"0",
"0",
"0",
"0",
"2",
"46",
"79",
"82",
"67",
"87",
"91",
"61",
"44",
"37",
"34",
"29",
"34",
"32",
"28",
"29",
"37",
"40",
"30",
"23",
"29",
"27",
"27",
"24",
"22",
"28",
"27",
"19",
"25",
"20",
"28",
"32",
"32",
"33",
"36",
"20",
"27",
"22",
"22",
"26",
"34",
"27",
"25",
"22",
"24",
"27",
"24",
"25",
"37",
"27",
"37",
"23",
"28",
"30",
"27",
"23",
"25",
"19",
"33",
"36",
"46",
"58",
"93",
"151",
"200",
"258",
"292",
"296",
"275",
"235",
"181",
"141",
"152",
"156",
"185",
"147",
"200",
"201",
"211",
"245",
"255",
"322",
"382",
"452",
"646",
"1046",
"1577",
"2390",
"3244",
"3596",
"3905",
"3749",
"3456",
"2979",
"2347",
"1650",
"1076",
"677",
"419",
"293",
"280",
"317",
"367",
"410",
"352",
"259",
"207",
"116",
"77",
"73",
"37",
"44",
"45",
"50",
"50",
"53",
"82",
"95",
"119",
"128",
"148",
"145",
"134",
"133",
"93",
"76",
"81",
"38",
"37",
"42",
"36",
"14",
"26",
"22",
"29",
"32",
"22",
"29",
"24",
"25",
"29",
"24",
"24",
"25",
"34",
"20",
"29",
"17",
"22",
"22",
"14",
"16",
"29",
"24",
"17",
"17",
"13",
"20",
"20",
"15",
"28",
"27",
"34",
"27",
"74",
"74",
"155",
"223",
"335",
"400",
"455",
"449",
"406",
"319",
"231",
"161",
"100",
"62",
"45",
"58",
"54",
"58",
"54",
"64",
"62",
"69",
"73",
"88",
"88",
"66",
"53",
"42",
"34",
"26",
"24",
"30",
"20",
"24",
"34",
"45",
"22",
"15",
"30",
"21",
"27",
"35",
"37",
"38",
"36",
"34",
"39",
"39",
"36",
"48",
"35",
"39",
"52",
"41",
"45",
"40",
"30",
"37",
"36",
"38",
"21",
"36",
"35",
"35",
"35",
"33",
"51",
"35",
"34",
"30",
"32",
"33",
"37",
"34",
"32",
"30",
"41",
"28",
"41",
"30",
"30",
"45",
"41",
"45",
"45",
"44",
"40",
"40",
"48",
"51",
"51",
"69",
"61",
"56",
"66",
"70",
"72",
"64",
"70",
"96",
"83",
"96",
"77",
"79",
"78",
"83",
"88",
"90",
"82",
"71",
"69",
"71",
"67",
"54",
"84",
"56",
"63",
"74",
"60",
"59",
"77",
"64",
"79",
"58",
"63",
"91",
"57",
"84",
"71",
"83",
"73",
"67",
"84",
"65",
"77",
"84",
"89",
"121",
"99",
"116",
"145",
"134",
"139",
"145",
"150",
"134",
"150",
"127",
"127",
"136",
"132",
"177",
"120",
"148",
"140",
"110",
"174",
"148",
"152",
"144",
"141",
"127",
"139",
"128",
"140",
"108",
"118",
"123",
"124",
"124",
"110",
"127",
"109",
"96",
"89",
"93",
"106",
"101",
"89",
"90",
"89",
"99",
"84",
"90",
"77",
"76",
"76",
"77",
"66",
"82",
"81",
"83",
"77",
"83",
"79",
"82",
"79",
"100",
"106",
"90",
"99",
"90",
"90",
"83",
"109",
"112",
"106",
"106",
"111",
"108",
"82",
"90",
"102",
"94",
"94",
"91",
"134",
"103",
"121",
"115",
"151",
"137",
"150",
"168",
"146",
"165",
"195",
"205",
"267",
"315",
"379",
"461",
"562",
"619",
"753",
"790",
"715",
"664",
"590",
"491",
"430",
"348",
"264",
"225",
"193",
"152",
"147",
"143",
"158",
"156",
"161",
"171",
"180",
"186",
"201",
"192",
"183",
"168",
"151",
"162",
"174",
"167",
"134",
"156",
"144",
"163",
"174",
"157",
"170",
"157",
"153",
"150",
"128",
"149",
"170",
"149",
"156",
"173",
"170",
"213",
"281",
"379",
"539",
"781",
"1186",
"1816",
"2759",
"3856",
"5535",
"6799",
"8743",
"9900",
"11234",
"11622",
"11707",
"10700",
"9887",
"8100",
"6669",
"4731",
"3561",
"2332",
"1615",
"900",
"582",
"363",
"270",
"158",
"182",
"153",
"160",
"168",
"175",
"169",
"165",
"198",
"215",
"262",
"267",
"266",
"292",
"255",
"305",
"263",
"209",
"167",
"183",
"139",
"137",
"137",
"147",
"141",
"113",
"123",
"103",
"96",
"107",
"95",
"133",
"113",
"121",
"103",
"113",
"98",
"131",
"128",
"115",
"125",
"106",
"140",
"134",
"134",
"139",
"143",
"183",
"209",
"252",
"279",
"395",
"441",
"618",
"680",
"774",
"822",
"950",
"1156",
"1429",
"1682",
"2079",
"2681",
"3363",
"3910",
"4697",
"5311",
"5815",
"6064",
"6148",
"5786",
"5708",
"5093",
"4730",
"4264",
"4330",
"3477",
"3412",
"3112",
"2852",
"2306",
"1970",
"1590",
"1243",
"886",
"702",
"545",
"402",
"353",
"344",
"325",
"301",
"321",
"331",
"321",
"295",
"252",
"242",
"219",
"214",
"176",
"171",
"135",
"152",
"144",
"148",
"130",
"145",
"100",
"111",
"88",
"103",
"103",
"104",
"98",
"74",
"97",
"99",
"99",
"96",
"89",
"81",
"106",
"97",
"101",
"101",
"106",
"73",
"69",
"89",
"88",
"106",
"87",
"84",
"89",
"96",
"89",
"106",
"118",
"136",
"103",
"120",
"138",
"116",
"126",
"112",
"113",
"124",
"125",
"139",
"161",
"207",
"214",
"323",
"428",
"574",
"656",
"804",
"904",
"1032",
"1092",
"1071",
"1044",
"1024",
"975",
"916",
"732",
"627",
"515",
"449",
"374",
"313",
"328",
"294",
"313",
"359",
"354",
"382",
"368",
"394",
"402",
"426",
"368",
"360",
"328",
"312",
"243",
"214",
"188",
"145",
"133",
"124",
"116",
"82",
"85",
"94",
"91",
"81",
"95",
"95",
"96",
"81",
"101",
"112",
"102",
"95",
"120",
"122",
"103",
"116",
"107",
"91",
"100",
"82",
"72",
"75",
"64",
"72",
"56",
"83",
"69",
"67",
"66",
"78",
"62",
"71",
"67",
"64",
"85",
"75",
"73",
"65",
"71",
"73",
"63",
"61",
"71",
"73",
"71",
"75",
"62",
"66",
"73",
"67",
"63",
"69",
"66",
"87",
"75",
"58",
"84",
"65",
"77",
"57",
"61",
"50",
"59",
"78",
"44",
"77",
"56",
"57",
"71",
"75",
"66",
"62",
"78",
"64",
"76",
"78",
"61",
"71",
"64",
"78",
"59",
"56",
"54",
"65",
"51",
"78",
"56",
"75",
"51",
"90",
"86",
"57",
"57",
"66",
"62",
"61",
"65",
"64",
"66",
"63",
"63",
"51",
"49",
"57",
"63",
"52",
"47",
"51",
"66",
"62",
"61",
"58",
"64",
"57",
"56",
"56",
"50",
"47",
"72",
"74",
"54",
"57",
"53",
"57",
"46",
"58",
"61",
"70",
"51",
"58",
"49",
"60",
"54",
"62",
"58",
"64",
"58",
"57",
"39",
"42",
"44",
"51",
"44",
"61",
"51",
"67",
"52",
"63",
"44",
"64",
"40",
"59",
"41",
"46",
"66",
"56",
"44",
"48",
"54",
"54",
"63",
"60",
"54",
"57",
"40",
"34",
"61",
"59",
"59",
"49",
"49",
"41",
"42",
"54",
"50",
"58",
"52",
"53",
"48",
"49",
"62",
"50",
"62",
"47",
"56",
"64",
"51",
"63",
"52",
"52",
"58",
"65",
"45",
"62",
"52",
"52",
"48",
"56",
"57",
"59",
"47",
"62",
"52",
"53",
"60",
"48",
"46",
"50",
"47",
"57",
"44",
"63",
"64",
"60",
"49",
"58",
"62",
"48",
"54",
"48",
"66",
"59",
"51",
"67",
"49",
"56",
"51",
"84",
"65",
"61",
"56",
"75",
"62",
"54",
"69",
"71",
"66",
"60",
"41",
"74",
"59",
"53",
"76",
"73",
"78",
"70",
"70",
"69",
"86",
"85",
"85",
"79",
"69",
"86",
"110",
"111",
"99",
"109",
"98",
"143",
"155",
"139",
"131",
"164",
"176",
"194",
"157",
"223",
"229",
"252",
"254",
"262",
"270",
"283",
"274",
"296",
"281",
"316",
"324",
"321",
"296",
"366",
"288",
"307",
"299",
"295",
"287",
"283",
"269",
"255",
"215",
"220",
"224",
"185",
"186",
"162",
"145",
"135",
"126",
"128",
"108",
"94",
"86",
"84",
"94",
"87",
"71",
"78",
"84",
"88",
"74",
"76",
"99",
"104",
"110",
"140",
"140",
"168",
"176",
"213",
"219",
"232",
"246",
"269",
"272",
"300",
"295",
"271",
"273",
"231",
"199",
"158",
"172",
"153",
"115",
"120",
"111",
"90",
"64",
"85",
"77",
"51",
"46",
"66",
"50",
"25098",
"Channel_info_start",
"Channel : Mg",
"Points : 0",
"Range : 0.000000 - 0.000000",
"Step : 0.010000",
"Channel_info_end",
"Channel_info_start",
"Channel : Al",
"Points : 0",
"Range : 0.000000 - 0.000000",
"Step : 0.010000",
"Channel_info_end",
"Channel_info_start",
"Channel : Si",
"Points : 0",
"Range : 0.000000 - 0.000000",
"Step : 0.010000",
"Channel_info_end",
"Channel_info_start",
"Channel : P ",
"Points : 0",
"Range : 0.000000 - 0.000000",
"Step : 0.010000",
"Channel_info_end",
"Channel_info_start",
"Channel : S ",
"Points : 0",
"Range : 0.000000 - 0.000000",
"Step : 0.010000",
"Channel_info_end",
"Channel_info_start",
"Channel : Cl",
"Points : 0",
"Range : 0.000000 - 0.000000",
"Step : 0.010000",
"Channel_info_end",
"Channel_info_start",
"Channel : K ",
"Points : 0",
"Range : 0.000000 - 0.000000",
"Step : 0.010000",
"Channel_info_end",
"Channel_info_start",
"Channel : Ca",
"Points : 0",
"Range : 0.000000 - 0.000000",
"Step : 0.010000",
"Channel_info_end",
"Channel_info_start",
"Channel : Ti",
"Points : 0",
"Range : 0.000000 - 0.000000",
"Step : 0.010000",
"Channel_info_end",
"Channel_info_start",
"Channel : V ",
"Points : 0",
"Range : 0.000000 - 0.000000",
"Step : 0.010000",
"Channel_info_end",
"Channel_info_start",
"Channel : Cr",
"Points : 0",
"Range : 0.000000 - 0.000000",
"Step : 0.010000",
"Channel_info_end",
"Channel_info_start",
"Channel : Mn",
"Points : 0",
"Range : 0.000000 - 0.000000",
"Step : 0.010000",
"Channel_info_end",
"Channel_info_start",
"Channel : Fe",
"Points : 0",
"Range : 0.000000 - 0.000000",
"Step : 0.010000",
"Channel_info_end",
"Channel_info_start",
"Channel : Cu",
"Points : 0",
"Range : 0.000000 - 0.000000",
"Step : 0.010000",
"Channel_info_end",
"Channel_info_start",
"Channel : Zn",
"Points : 0",
"Range : 0.000000 - 0.000000",
"Step : 0.010000",
"Channel_info_end",
"Channel_info_start",
"Channel : Sr",
"Points : 0",
"Range : 0.000000 - 0.000000",
"Step : 0.010000",
"Channel_info_end",
"Channel_info_start",
"Channel : Pb",
"Points : 0",
"Range : 0.000000 - 0.000000",
"Step : 0.010000",
"Channel_info_end",
"",
"Qualitative Result",
"--------------------------------------------------------------------------------",
"Element :  Pt, S , Ca, Fe, Ru",
"",
"Peak List",
"--------------------------------------------------------------------------------",
"Channel               Line        keV     Net Int.(cps/uA)",
"--------------------------------------------------------------------------------",
"Na                    ----         1.60     0.074",
"                      PtMa         2.08     1.259",
"                      S Ka         2.34     0.113",
"                      ----         2.70     0.039",
"                      CaKa         3.70     0.163",
"                      CaKb         4.03     0.025",
"                      FeKa         6.40     0.031",
"                      ----         6.72     0.030",
"                      PtLL         8.25     0.304",
"                      PtLa         9.43     5.638",
"                      ----         9.99     0.074",
"                      PtLb4       10.77     0.190",
"                      PtLb1       11.06     2.901",
"                      ----        11.28     1.237",
"                      PtLg1       12.92     0.527",
"                      PtLg2       13.24     0.143",
"                      ----        19.12     0.134",
"                      RuKa        19.33     0.112",
"                      ----        19.98     0.093",
"--------------------------------------------------------------------------------",
"",
"Quantitative Result",
"--------------------------------------------------------------------------------",
"Analyte               Result             Std.Dev. Proc.-Calc. Line Intensity(cps/uA)",
"--------------------------------------------------------------------------------",
"====[No. 1 Layer]====< Layer1               >===============================",
"Layer1                   0.000 ug/cm2    -------- Flux       -------- --------",