File: inputs/edxCalibration/edx_raw/2010/junho/Pt 15770.20100526012601.csv
"Sample    : Pt 15770",
"Operator  : luisf",
"Comment  : cubatao-g-policarbonato",
"Group     : kerr2007ag180cal_lt",
"Date       : 2010-05-26 01:21:55",
"",
"Mesurement Condition",
"------------------------------------------------------------------------------------",
"Instrument : 700HS2   Atmosphere : Vac.   Collimator : 10(mm)   Spin : No",
"------------------------------------------------------------------------------------",
"Analyte               TG kV   uA      FI Acq.(keV)  Anal.(keV)  Time(sec)     DT(%)",
"------------------------------------------------------------------------------------",
"Na                    Rh 50  210-Auto Al  0 - 20    0.8 - 1.2   Live -  180   15",
"",
"<Profile>",
"Channel_info_start",
"Channel : Na",
"Points : 2048",
"Range : 0.000000 - 20.48",
"Step : 0.010000",
"Channel_info_end",
"0",
"0",
"0",
"0",
"0",
"0",
"0",
"0",
"0",
"0",
"0",
"0",
"0",
"0",
"0",
"38",
"97",
"97",
"94",
"82",
"68",
"61",
"48",
"45",
"42",
"34",
"26",
"22",
"32",
"33",
"25",
"27",
"24",
"32",
"24",
"30",
"24",
"26",
"28",
"34",
"20",
"25",
"32",
"23",
"35",
"23",
"24",
"32",
"22",
"26",
"23",
"29",
"15",
"25",
"19",
"27",
"30",
"25",
"33",
"24",
"28",
"23",
"22",
"17",
"26",
"19",
"29",
"25",
"14",
"23",
"33",
"32",
"30",
"32",
"47",
"65",
"93",
"147",
"195",
"246",
"294",
"303",
"225",
"197",
"216",
"173",
"127",
"175",
"150",
"152",
"180",
"182",
"183",
"227",
"317",
"325",
"369",
"408",
"681",
"1063",
"1670",
"2384",
"3143",
"3726",
"3810",
"3816",
"3482",
"2924",
"2330",
"1660",
"1077",
"649",
"420",
"285",
"290",
"301",
"353",
"320",
"339",
"269",
"191",
"144",
"102",
"61",
"53",
"44",
"36",
"44",
"54",
"59",
"62",
"91",
"110",
"144",
"138",
"162",
"152",
"121",
"97",
"94",
"73",
"53",
"37",
"33",
"32",
"22",
"25",
"27",
"30",
"24",
"17",
"26",
"24",
"17",
"24",
"21",
"24",
"19",
"26",
"14",
"24",
"21",
"22",
"14",
"21",
"22",
"26",
"21",
"28",
"21",
"17",
"30",
"21",
"32",
"26",
"29",
"32",
"39",
"75",
"98",
"163",
"236",
"353",
"407",
"493",
"439",
"452",
"294",
"221",
"159",
"91",
"65",
"56",
"47",
"52",
"42",
"56",
"73",
"53",
"78",
"77",
"88",
"78",
"59",
"59",
"44",
"39",
"26",
"33",
"27",
"24",
"24",
"28",
"28",
"25",
"20",
"26",
"22",
"36",
"36",
"34",
"41",
"29",
"30",
"36",
"36",
"46",
"48",
"47",
"54",
"33",
"45",
"34",
"42",
"39",
"41",
"36",
"33",
"38",
"37",
"39",
"28",
"24",
"34",
"36",
"27",
"34",
"32",
"34",
"35",
"30",
"28",
"39",
"28",
"38",
"38",
"39",
"35",
"36",
"38",
"37",
"49",
"42",
"33",
"42",
"48",
"35",
"46",
"57",
"49",
"63",
"70",
"65",
"78",
"60",
"68",
"75",
"64",
"82",
"91",
"90",
"82",
"97",
"95",
"91",
"97",
"88",
"76",
"85",
"93",
"60",
"78",
"81",
"72",
"71",
"88",
"70",
"49",
"74",
"75",
"85",
"68",
"68",
"69",
"70",
"72",
"87",
"59",
"71",
"83",
"81",
"82",
"75",
"87",
"110",
"113",
"102",
"120",
"142",
"135",
"152",
"148",
"150",
"139",
"143",
"130",
"150",
"154",
"126",
"138",
"174",
"166",
"161",
"146",
"142",
"149",
"125",
"121",
"158",
"132",
"121",
"151",
"129",
"134",
"117",
"105",
"125",
"115",
"114",
"120",
"120",
"105",
"90",
"88",
"95",
"90",
"100",
"75",
"85",
"86",
"95",
"96",
"96",
"108",
"81",
"71",
"86",
"78",
"99",
"84",
"94",
"109",
"100",
"119",
"121",
"86",
"96",
"88",
"101",
"98",
"103",
"100",
"109",
"109",
"99",
"109",
"97",
"115",
"98",
"106",
"103",
"106",
"93",
"118",
"101",
"91",
"109",
"134",
"117",
"159",
"192",
"150",
"193",
"180",
"203",
"187",
"253",
"292",
"368",
"505",
"569",
"615",
"685",
"771",
"732",
"699",
"631",
"526",
"401",
"331",
"266",
"241",
"192",
"180",
"159",
"150",
"150",
"161",
"183",
"174",
"204",
"196",
"213",
"211",
"184",
"190",
"170",
"139",
"167",
"159",
"142",
"166",
"161",
"151",
"174",
"164",
"132",
"147",
"191",
"158",
"161",
"157",
"159",
"169",
"191",
"171",
"210",
"220",
"246",
"335",
"521",
"709",
"1219",
"1695",
"2603",
"3665",
"5172",
"6515",
"8499",
"9962",
"11405",
"11555",
"12103",
"11268",
"10069",
"8475",
"6935",
"5156",
"3863",
"2428",
"1687",
"1071",
"606",
"438",
"261",
"211",
"162",
"161",
"173",
"150",
"155",
"181",
"208",
"203",
"231",
"250",
"284",
"255",
"248",
"273",
"271",
"272",
"229",
"218",
"185",
"143",
"152",
"136",
"119",
"127",
"139",
"95",
"112",
"120",
"110",
"107",
"126",
"122",
"102",
"112",
"135",
"119",
"111",
"119",
"122",
"112",
"132",
"112",
"123",
"117",
"139",
"160",
"170",
"204",
"254",
"309",
"374",
"465",
"530",
"644",
"778",
"876",
"1010",
"1182",
"1307",
"1655",
"2044",
"2513",
"3255",
"3890",
"4751",
"5155",
"5865",
"5969",
"6212",
"5991",
"5689",
"5326",
"5022",
"4493",
"4193",
"3793",
"3448",
"3129",
"2881",
"2403",
"2079",
"1640",
"1271",
"1041",
"751",
"592",
"490",
"370",
"390",
"341",
"327",
"314",
"298",
"290",
"261",
"294",
"231",
"230",
"209",
"171",
"197",
"171",
"169",
"138",
"145",
"131",
"109",
"114",
"109",
"96",
"106",
"110",
"89",
"105",
"109",
"108",
"88",
"64",
"106",
"80",
"100",
"96",
"91",
"87",
"102",
"86",
"77",
"105",
"81",
"100",
"80",
"91",
"83",
"102",
"106",
"111",
"102",
"118",
"108",
"118",
"119",
"122",
"142",
"139",
"120",
"118",
"156",
"122",
"138",
"146",
"183",
"237",
"320",
"372",
"527",
"591",
"780",
"904",
"963",
"1063",
"1171",
"1098",
"1119",
"1058",
"873",
"756",
"639",
"545",
"467",
"364",
"364",
"322",
"294",
"323",
"341",
"321",
"368",
"355",
"406",
"382",
"372",
"359",
"375",
"338",
"283",
"231",
"228",
"173",
"161",
"136",
"113",
"118",
"98",
"81",
"87",
"86",
"107",
"103",
"118",
"86",
"98",
"115",
"123",
"88",
"114",
"113",
"130",
"103",
"94",
"89",
"99",
"102",
"103",
"96",
"81",
"78",
"73",
"68",
"89",
"72",
"70",
"68",
"72",
"71",
"64",
"76",
"80",
"64",
"54",
"65",
"69",
"62",
"61",
"75",
"82",
"73",
"53",
"78",
"74",
"81",
"74",
"56",
"83",
"62",
"63",
"70",
"62",
"58",
"84",
"73",
"61",
"72",
"58",
"77",
"72",
"57",
"56",
"61",
"72",
"62",
"74",
"71",
"76",
"72",
"62",
"73",
"62",
"62",
"68",
"60",
"83",
"66",
"65",
"49",
"77",
"53",
"60",
"50",
"57",
"59",
"61",
"74",
"66",
"64",
"62",
"58",
"62",
"59",
"56",
"60",
"59",
"48",
"70",
"49",
"53",
"56",
"75",
"48",
"93",
"63",
"62",
"60",
"62",
"59",
"61",
"59",
"65",
"60",
"48",
"58",
"59",
"47",
"58",
"57",
"53",
"54",
"51",
"49",
"64",
"46",
"49",
"58",
"59",
"41",
"57",
"70",
"72",
"41",
"64",
"60",
"51",
"62",
"56",
"62",
"51",
"59",
"46",
"54",
"61",
"53",
"59",
"57",
"66",
"60",
"49",
"59",
"49",
"54",
"51",
"47",
"61",
"49",
"63",
"56",
"66",
"56",
"46",
"42",
"59",
"61",
"53",
"48",
"61",
"62",
"60",
"56",
"39",
"71",
"64",
"53",
"58",
"47",
"54",
"51",
"59",
"52",
"51",
"49",
"68",
"52",
"46",
"54",
"49",
"59",
"53",
"47",
"52",
"57",
"54",
"44",
"40",
"50",
"59",
"59",
"64",
"49",
"50",
"42",
"56",
"41",
"52",
"60",
"45",
"65",
"41",
"63",
"51",
"57",
"60",
"59",
"46",
"54",
"63",
"41",
"53",
"66",
"49",
"47",
"59",
"64",
"64",
"48",
"60",
"45",
"66",
"74",
"64",
"60",
"57",
"64",
"76",
"70",
"54",
"52",
"51",
"71",
"77",
"53",
"82",
"75",
"66",
"64",
"82",
"74",
"75",
"94",
"91",
"98",
"96",
"86",
"117",
"107",
"119",
"131",
"152",
"135",
"168",
"151",
"187",
"188",
"199",
"190",
"228",
"236",
"240",
"264",
"258",
"282",
"286",
"283",
"340",
"355",
"345",
"300",
"341",
"285",
"304",
"355",
"332",
"273",
"258",
"267",
"233",
"243",
"218",
"187",
"205",
"204",
"180",
"157",
"170",
"126",
"114",
"114",
"103",
"115",
"93",
"83",
"87",
"57",
"75",
"83",
"97",
"85",
"89",
"105",
"109",
"117",
"144",
"146",
"155",
"199",
"227",
"229",
"236",
"252",
"259",
"273",
"288",
"243",
"294",
"258",
"237",
"241",
"210",
"180",
"140",
"130",
"139",
"107",
"102",
"70",
"65",
"65",
"73",
"48",
"57",
"49",
"25229",
"Channel_info_start",
"Channel : Mg",
"Points : 0",
"Range : 0.000000 - 0.000000",
"Step : 0.010000",
"Channel_info_end",
"Channel_info_start",
"Channel : Al",
"Points : 0",
"Range : 0.000000 - 0.000000",
"Step : 0.010000",
"Channel_info_end",
"Channel_info_start",
"Channel : Si",
"Points : 0",
"Range : 0.000000 - 0.000000",
"Step : 0.010000",
"Channel_info_end",
"Channel_info_start",
"Channel : P ",
"Points : 0",
"Range : 0.000000 - 0.000000",
"Step : 0.010000",
"Channel_info_end",
"Channel_info_start",
"Channel : S ",
"Points : 0",
"Range : 0.000000 - 0.000000",
"Step : 0.010000",
"Channel_info_end",
"Channel_info_start",
"Channel : Cl",
"Points : 0",
"Range : 0.000000 - 0.000000",
"Step : 0.010000",
"Channel_info_end",
"Channel_info_start",
"Channel : K ",
"Points : 0",
"Range : 0.000000 - 0.000000",
"Step : 0.010000",
"Channel_info_end",
"Channel_info_start",
"Channel : Ca",
"Points : 0",
"Range : 0.000000 - 0.000000",
"Step : 0.010000",
"Channel_info_end",
"Channel_info_start",
"Channel : Ti",
"Points : 0",
"Range : 0.000000 - 0.000000",
"Step : 0.010000",
"Channel_info_end",
"Channel_info_start",
"Channel : V ",
"Points : 0",
"Range : 0.000000 - 0.000000",
"Step : 0.010000",
"Channel_info_end",
"Channel_info_start",
"Channel : Cr",
"Points : 0",
"Range : 0.000000 - 0.000000",
"Step : 0.010000",
"Channel_info_end",
"Channel_info_start",
"Channel : Mn",
"Points : 0",
"Range : 0.000000 - 0.000000",
"Step : 0.010000",
"Channel_info_end",
"Channel_info_start",
"Channel : Fe",
"Points : 0",
"Range : 0.000000 - 0.000000",
"Step : 0.010000",
"Channel_info_end",
"Channel_info_start",
"Channel : Cu",
"Points : 0",
"Range : 0.000000 - 0.000000",
"Step : 0.010000",
"Channel_info_end",
"Channel_info_start",
"Channel : Zn",
"Points : 0",
"Range : 0.000000 - 0.000000",
"Step : 0.010000",
"Channel_info_end",
"Channel_info_start",
"Channel : Sr",
"Points : 0",
"Range : 0.000000 - 0.000000",
"Step : 0.010000",
"Channel_info_end",
"Channel_info_start",
"Channel : Pb",
"Points : 0",
"Range : 0.000000 - 0.000000",
"Step : 0.010000",
"Channel_info_end",
"",
"Qualitative Result",
"--------------------------------------------------------------------------------",
"Element :  Si, Pt, S , Ca, Rh",
"",
"Peak List",
"--------------------------------------------------------------------------------",
"Channel               Line        keV     Net Int.(cps/uA)",
"--------------------------------------------------------------------------------",
"Na                    ----         1.61     0.076",
"                      SiKa         1.77     0.026",
"                      PtMa         2.08     1.250",
"                      S Ka         2.36     0.098",
"                      ----         2.70     0.045",
"                      CaKa         3.68     0.178",
"                      CaKb         4.02     0.024",
"                      ----         6.52     0.031",
"                      PtLL         8.26     0.293",
"                      PtLa         9.44     5.792",
"                      ----         9.99     0.068",
"                      PtLb1       11.06     2.883",
"                      ----        11.28     1.281",
"                      PtLg1       12.96     0.524",
"                      PtLg3       13.28     0.161",
"                      RhKaC       19.26     0.144",
"                      RhKa        20.08     0.141",
"--------------------------------------------------------------------------------",
"",
"Quantitative Result",
"--------------------------------------------------------------------------------",
"Analyte               Result             Std.Dev. Proc.-Calc. Line Intensity(cps/uA)",
"--------------------------------------------------------------------------------",
"====[No. 1 Layer]====< Layer1               >===============================",
"Layer1                   0.000 ug/cm2    -------- Flux       -------- --------",