File: inputs/edxCalibration/edx_raw/2010/junho/RbI 31511.20100525230918.csv
"Sample    : RbI 31511",
"Operator  : luisf",
"Comment  : cubatao-g-policarbonato",
"Group     : kerr2007ag180cal_lt",
"Date       : 2010-05-25 23:05:15",
"",
"Mesurement Condition",
"------------------------------------------------------------------------------------",
"Instrument : 700HS2   Atmosphere : Vac.   Collimator : 10(mm)   Spin : No",
"------------------------------------------------------------------------------------",
"Analyte               TG kV   uA      FI Acq.(keV)  Anal.(keV)  Time(sec)     DT(%)",
"------------------------------------------------------------------------------------",
"Na                    Rh 50  237-Auto Al  0 - 20    0.8 - 1.2   Live -  179   15",
"",
"<Profile>",
"Channel_info_start",
"Channel : Na",
"Points : 2048",
"Range : 0.000000 - 20.48",
"Step : 0.010000",
"Channel_info_end",
"0",
"0",
"0",
"0",
"0",
"0",
"0",
"0",
"0",
"0",
"0",
"0",
"0",
"0",
"0",
"12",
"35",
"16",
"30",
"24",
"24",
"31",
"40",
"38",
"36",
"25",
"40",
"40",
"28",
"47",
"30",
"25",
"33",
"28",
"38",
"20",
"41",
"29",
"22",
"24",
"29",
"21",
"29",
"24",
"28",
"18",
"23",
"24",
"25",
"20",
"24",
"21",
"31",
"21",
"28",
"22",
"18",
"24",
"23",
"23",
"24",
"27",
"23",
"23",
"25",
"27",
"31",
"23",
"26",
"27",
"35",
"44",
"38",
"61",
"64",
"71",
"69",
"66",
"55",
"61",
"106",
"183",
"372",
"601",
"794",
"917",
"932",
"858",
"754",
"606",
"434",
"317",
"219",
"131",
"99",
"76",
"65",
"59",
"100",
"108",
"92",
"94",
"89",
"79",
"68",
"59",
"62",
"71",
"80",
"94",
"78",
"71",
"56",
"54",
"36",
"28",
"23",
"24",
"30",
"33",
"28",
"43",
"44",
"49",
"63",
"54",
"49",
"47",
"36",
"40",
"38",
"28",
"36",
"27",
"33",
"41",
"26",
"37",
"29",
"47",
"31",
"27",
"40",
"23",
"20",
"28",
"24",
"30",
"30",
"30",
"31",
"34",
"40",
"29",
"36",
"28",
"31",
"29",
"37",
"33",
"34",
"30",
"41",
"49",
"44",
"43",
"54",
"40",
"61",
"90",
"106",
"132",
"201",
"225",
"258",
"260",
"278",
"220",
"225",
"253",
"325",
"466",
"651",
"825",
"953",
"918",
"949",
"766",
"589",
"472",
"584",
"783",
"1301",
"2265",
"3210",
"4355",
"5292",
"5578",
"5283",
"4146",
"3098",
"2010",
"1225",
"702",
"504",
"542",
"753",
"1130",
"1891",
"2519",
"3232",
"3584",
"3620",
"3309",
"2879",
"2375",
"1795",
"1334",
"971",
"763",
"562",
"546",
"559",
"706",
"810",
"843",
"937",
"741",
"646",
"500",
"347",
"236",
"163",
"156",
"128",
"146",
"225",
"303",
"398",
"411",
"431",
"471",
"393",
"346",
"265",
"176",
"156",
"142",
"142",
"168",
"225",
"248",
"291",
"298",
"252",
"246",
"191",
"175",
"129",
"106",
"84",
"62",
"56",
"65",
"39",
"48",
"39",
"50",
"44",
"59",
"43",
"42",
"49",
"51",
"36",
"36",
"44",
"46",
"51",
"49",
"35",
"49",
"53",
"56",
"66",
"46",
"54",
"41",
"44",
"54",
"47",
"67",
"64",
"42",
"43",
"47",
"63",
"52",
"59",
"66",
"56",
"61",
"64",
"86",
"85",
"85",
"90",
"74",
"94",
"86",
"82",
"106",
"104",
"102",
"97",
"125",
"112",
"112",
"142",
"113",
"142",
"126",
"129",
"125",
"110",
"107",
"127",
"113",
"97",
"134",
"120",
"115",
"127",
"127",
"98",
"106",
"137",
"106",
"130",
"108",
"117",
"118",
"111",
"103",
"101",
"113",
"104",
"92",
"107",
"112",
"115",
"88",
"89",
"93",
"76",
"77",
"106",
"78",
"79",
"80",
"80",
"79",
"98",
"89",
"95",
"88",
"77",
"103",
"68",
"76",
"85",
"77",
"89",
"80",
"82",
"77",
"95",
"82",
"82",
"100",
"76",
"76",
"89",
"79",
"108",
"86",
"99",
"94",
"101",
"101",
"105",
"90",
"100",
"112",
"101",
"102",
"95",
"118",
"127",
"138",
"123",
"141",
"113",
"106",
"124",
"111",
"95",
"113",
"75",
"90",
"100",
"97",
"99",
"120",
"87",
"112",
"123",
"112",
"101",
"127",
"99",
"140",
"141",
"118",
"124",
"123",
"143",
"152",
"155",
"138",
"176",
"180",
"168",
"184",
"154",
"148",
"130",
"128",
"144",
"101",
"137",
"112",
"138",
"141",
"119",
"126",
"118",
"119",
"120",
"133",
"120",
"117",
"107",
"115",
"95",
"105",
"106",
"107",
"102",
"92",
"101",
"95",
"110",
"100",
"91",
"100",
"105",
"99",
"82",
"77",
"107",
"94",
"99",
"106",
"97",
"95",
"115",
"94",
"114",
"89",
"104",
"114",
"94",
"102",
"112",
"91",
"98",
"92",
"102",
"91",
"89",
"79",
"84",
"100",
"94",
"85",
"89",
"99",
"88",
"98",
"110",
"79",
"108",
"88",
"91",
"89",
"97",
"82",
"94",
"88",
"94",
"94",
"107",
"84",
"94",
"99",
"115",
"92",
"104",
"107",
"79",
"111",
"92",
"92",
"116",
"115",
"105",
"99",
"105",
"100",
"103",
"118",
"86",
"88",
"95",
"97",
"108",
"103",
"102",
"102",
"78",
"100",
"86",
"110",
"92",
"101",
"120",
"106",
"113",
"95",
"101",
"91",
"92",
"107",
"98",
"99",
"111",
"100",
"116",
"80",
"104",
"92",
"77",
"112",
"74",
"86",
"112",
"87",
"93",
"110",
"94",
"84",
"102",
"86",
"100",
"108",
"102",
"77",
"91",
"88",
"91",
"93",
"97",
"91",
"94",
"94",
"88",
"91",
"88",
"94",
"99",
"98",
"100",
"95",
"72",
"92",
"72",
"85",
"87",
"73",
"78",
"85",
"90",
"74",
"92",
"84",
"79",
"67",
"89",
"102",
"78",
"113",
"82",
"77",
"90",
"78",
"85",
"82",
"88",
"92",
"81",
"71",
"77",
"92",
"120",
"80",
"93",
"89",
"93",
"72",
"104",
"81",
"93",
"98",
"78",
"94",
"100",
"90",
"104",
"84",
"80",
"105",
"85",
"101",
"114",
"107",
"115",
"132",
"116",
"127",
"133",
"143",
"204",
"239",
"339",
"479",
"764",
"1012",
"1620",
"2321",
"3272",
"4326",
"5616",
"6906",
"8470",
"9415",
"10608",
"10997",
"11768",
"11257",
"10946",
"9696",
"8854",
"7094",
"6031",
"4496",
"3367",
"2427",
"1784",
"1189",
"787",
"457",
"313",
"245",
"169",
"150",
"120",
"125",
"113",
"100",
"108",
"91",
"94",
"88",
"84",
"88",
"97",
"100",
"97",
"72",
"79",
"92",
"87",
"74",
"85",
"74",
"93",
"79",
"90",
"66",
"92",
"84",
"73",
"69",
"101",
"76",
"86",
"111",
"99",
"67",
"87",
"108",
"77",
"90",
"80",
"81",
"90",
"99",
"112",
"88",
"95",
"86",
"104",
"120",
"166",
"194",
"264",
"320",
"463",
"566",
"791",
"914",
"1167",
"1325",
"1571",
"1683",
"1784",
"1773",
"1889",
"1686",
"1656",
"1482",
"1382",
"1112",
"987",
"845",
"702",
"573",
"463",
"402",
"414",
"304",
"253",
"217",
"191",
"181",
"131",
"106",
"118",
"89",
"87",
"74",
"75",
"61",
"73",
"64",
"57",
"56",
"60",
"64",
"65",
"54",
"48",
"67",
"63",
"61",
"50",
"59",
"82",
"46",
"63",
"68",
"66",
"68",
"76",
"74",
"67",
"55",
"73",
"60",
"63",
"67",
"61",
"53",
"77",
"52",
"48",
"60",
"62",
"60",
"62",
"54",
"66",
"57",
"61",
"51",
"59",
"64",
"63",
"56",
"53",
"63",
"55",
"71",
"48",
"63",
"61",
"66",
"60",
"60",
"67",
"43",
"55",
"46",
"77",
"63",
"48",
"67",
"68",
"68",
"60",
"61",
"66",
"62",
"69",
"59",
"59",
"53",
"49",
"54",
"61",
"54",
"50",
"44",
"64",
"53",
"57",
"56",
"47",
"62",
"50",
"54",
"75",
"78",
"75",
"61",
"50",
"68",
"56",
"68",
"56",
"46",
"48",
"53",
"62",
"61",
"73",
"44",
"53",
"55",
"68",
"49",
"67",
"66",
"50",
"60",
"75",
"74",
"65",
"61",
"75",
"44",
"55",
"49",
"67",
"47",
"62",
"57",
"41",
"49",
"57",
"57",
"56",
"59",
"62",
"60",
"49",
"62",
"74",
"68",
"56",
"64",
"52",
"59",
"60",
"61",
"56",
"76",
"68",
"80",
"57",
"56",
"65",
"85",
"67",
"92",
"86",
"65",
"72",
"91",
"85",
"77",
"91",
"90",
"105",
"110",
"110",
"112",
"129",
"140",
"139",
"151",
"145",
"193",
"220",
"190",
"219",
"192",
"253",
"262",
"277",
"260",
"325",
"305",
"306",
"330",
"384",
"317",
"334",
"366",
"382",
"338",
"321",
"342",
"325",
"298",
"344",
"293",
"266",
"236",
"262",
"226",
"222",
"190",
"208",
"189",
"169",
"162",
"152",
"129",
"106",
"111",
"102",
"112",
"81",
"86",
"80",
"93",
"97",
"79",
"84",
"81",
"113",
"120",
"104",
"117",
"164",
"158",
"149",
"158",
"208",
"226",
"210",
"233",
"213",
"207",
"223",
"183",
"202",
"191",
"140",
"142",
"123",
"117",
"103",
"84",
"84",
"64",
"48",
"68",
"69",
"50",
"65",
"57",
"45207",
"Channel_info_start",
"Channel : Mg",
"Points : 0",
"Range : 0.000000 - 0.000000",
"Step : 0.010000",
"Channel_info_end",
"Channel_info_start",
"Channel : Al",
"Points : 0",
"Range : 0.000000 - 0.000000",
"Step : 0.010000",
"Channel_info_end",
"Channel_info_start",
"Channel : Si",
"Points : 0",
"Range : 0.000000 - 0.000000",
"Step : 0.010000",
"Channel_info_end",
"Channel_info_start",
"Channel : P ",
"Points : 0",
"Range : 0.000000 - 0.000000",
"Step : 0.010000",
"Channel_info_end",
"Channel_info_start",
"Channel : S ",
"Points : 0",
"Range : 0.000000 - 0.000000",
"Step : 0.010000",
"Channel_info_end",
"Channel_info_start",
"Channel : Cl",
"Points : 0",
"Range : 0.000000 - 0.000000",
"Step : 0.010000",
"Channel_info_end",
"Channel_info_start",
"Channel : K ",
"Points : 0",
"Range : 0.000000 - 0.000000",
"Step : 0.010000",
"Channel_info_end",
"Channel_info_start",
"Channel : Ca",
"Points : 0",
"Range : 0.000000 - 0.000000",
"Step : 0.010000",
"Channel_info_end",
"Channel_info_start",
"Channel : Ti",
"Points : 0",
"Range : 0.000000 - 0.000000",
"Step : 0.010000",
"Channel_info_end",
"Channel_info_start",
"Channel : V ",
"Points : 0",
"Range : 0.000000 - 0.000000",
"Step : 0.010000",
"Channel_info_end",
"Channel_info_start",
"Channel : Cr",
"Points : 0",
"Range : 0.000000 - 0.000000",
"Step : 0.010000",
"Channel_info_end",
"Channel_info_start",
"Channel : Mn",
"Points : 0",
"Range : 0.000000 - 0.000000",
"Step : 0.010000",
"Channel_info_end",
"Channel_info_start",
"Channel : Fe",
"Points : 0",
"Range : 0.000000 - 0.000000",
"Step : 0.010000",
"Channel_info_end",
"Channel_info_start",
"Channel : Cu",
"Points : 0",
"Range : 0.000000 - 0.000000",
"Step : 0.010000",
"Channel_info_end",
"Channel_info_start",
"Channel : Zn",
"Points : 0",
"Range : 0.000000 - 0.000000",
"Step : 0.010000",
"Channel_info_end",
"Channel_info_start",
"Channel : Sr",
"Points : 0",
"Range : 0.000000 - 0.000000",
"Step : 0.010000",
"Channel_info_end",
"Channel_info_start",
"Channel : Pb",
"Points : 0",
"Range : 0.000000 - 0.000000",
"Step : 0.010000",
"Channel_info_end",
"",
"Qualitative Result",
"--------------------------------------------------------------------------------",
"Element :  Al, Rb, P , I , Ca, Zn, Rh",
"",
"Peak List",
"--------------------------------------------------------------------------------",
"Channel               Line        keV     Net Int.(cps/uA)",
"--------------------------------------------------------------------------------",
"Na                    AlKa         1.49     0.012",
"                      RbLa         1.71     0.243",
"                      P Ka         1.99     0.020",
"                      I LaESC      2.18     0.015",
"                      I LL         3.49     0.042",
"                      CaKa         3.68     0.250",
"                      I La         3.94     1.766",
"                      CaKb         4.01     0.035",
"                      I Lb1        4.23     1.137",
"                      I Lb2        4.52     0.254",
"                      I Lg1        4.81     0.110",
"                      I Lg2        5.06     0.078",
"                      ZnKa         8.65     0.030",
"                      RbKa        13.36     5.526",
"                      RbKb        14.96     0.869",
"                      RhKaC       19.12     0.138",
"                      ----        19.44     0.065",
"                      RhKa        20.05     0.082",
"--------------------------------------------------------------------------------",
"",
"Quantitative Result",
"--------------------------------------------------------------------------------",
"Analyte               Result             Std.Dev. Proc.-Calc. Line Intensity(cps/uA)",
"--------------------------------------------------------------------------------",
"====[No. 1 Layer]====< Layer1               >===============================",
"Layer1                   0.000 ug/cm2    -------- Flux       -------- --------",