File: inputs/edxCalibration/edx_raw/2010/junho/Sb 31509.20100611032406.csv
"Sample    : Sb 31509",
"Operator  : Luís",
"Comment  : cubatao-g-policarbonato",
"Group     : kerr2007ag180cal_lt",
"Date       : 2010-06-11 03:19:55",
"",
"Mesurement Condition",
"------------------------------------------------------------------------------------",
"Instrument : 700HS2   Atmosphere : Vac.   Collimator : 10(mm)   Spin : No",
"------------------------------------------------------------------------------------",
"Analyte               TG kV   uA      FI Acq.(keV)  Anal.(keV)  Time(sec)     DT(%)",
"------------------------------------------------------------------------------------",
"Na                    Rh 50  360-Auto Al  0 - 20    0.8 - 1.2   Live -  179   15",
"",
"<Profile>",
"Channel_info_start",
"Channel : Na",
"Points : 2048",
"Range : 0.000000 - 20.48",
"Step : 0.010000",
"Channel_info_end",
"0",
"0",
"0",
"0",
"0",
"0",
"0",
"0",
"0",
"0",
"0",
"0",
"0",
"0",
"2",
"22",
"48",
"48",
"33",
"33",
"42",
"45",
"47",
"30",
"42",
"51",
"42",
"37",
"42",
"40",
"41",
"34",
"37",
"35",
"59",
"36",
"38",
"37",
"49",
"60",
"41",
"33",
"40",
"39",
"52",
"41",
"42",
"45",
"42",
"48",
"40",
"40",
"34",
"39",
"47",
"44",
"42",
"38",
"39",
"39",
"48",
"48",
"46",
"35",
"47",
"52",
"44",
"50",
"46",
"54",
"54",
"60",
"41",
"61",
"64",
"38",
"57",
"59",
"52",
"44",
"46",
"58",
"52",
"47",
"66",
"60",
"81",
"75",
"83",
"86",
"134",
"159",
"177",
"215",
"193",
"191",
"140",
"135",
"152",
"143",
"160",
"152",
"192",
"162",
"143",
"157",
"157",
"137",
"118",
"108",
"66",
"105",
"69",
"59",
"66",
"68",
"62",
"57",
"90",
"58",
"77",
"54",
"79",
"49",
"57",
"66",
"49",
"60",
"45",
"56",
"61",
"58",
"70",
"69",
"57",
"77",
"79",
"69",
"69",
"60",
"78",
"84",
"74",
"72",
"81",
"95",
"86",
"71",
"95",
"98",
"112",
"101",
"115",
"143",
"203",
"273",
"348",
"445",
"575",
"645",
"624",
"532",
"483",
"364",
"316",
"253",
"249",
"249",
"291",
"331",
"393",
"428",
"529",
"795",
"1418",
"2403",
"4216",
"6696",
"9683",
"12105",
"13816",
"13191",
"11788",
"9209",
"6629",
"4428",
"3449",
"2803",
"3283",
"4187",
"5960",
"7113",
"8422",
"8324",
"8186",
"6910",
"5696",
"4461",
"3588",
"2588",
"2002",
"1692",
"1699",
"1764",
"1915",
"1932",
"1749",
"1534",
"1248",
"794",
"602",
"428",
"375",
"422",
"554",
"749",
"878",
"926",
"955",
"818",
"706",
"493",
"407",
"285",
"286",
"321",
"473",
"516",
"627",
"700",
"697",
"612",
"511",
"389",
"298",
"215",
"183",
"111",
"78",
"72",
"64",
"66",
"58",
"63",
"68",
"51",
"65",
"46",
"72",
"77",
"68",
"66",
"72",
"70",
"91",
"98",
"78",
"86",
"86",
"101",
"96",
"73",
"96",
"95",
"82",
"88",
"77",
"77",
"89",
"75",
"91",
"91",
"86",
"75",
"85",
"78",
"93",
"68",
"52",
"75",
"65",
"61",
"69",
"65",
"91",
"63",
"74",
"89",
"96",
"95",
"97",
"101",
"119",
"118",
"138",
"140",
"103",
"120",
"131",
"140",
"156",
"150",
"137",
"135",
"138",
"138",
"157",
"127",
"143",
"150",
"126",
"155",
"134",
"118",
"154",
"158",
"139",
"131",
"150",
"132",
"148",
"157",
"132",
"133",
"110",
"148",
"96",
"113",
"100",
"109",
"111",
"134",
"112",
"119",
"122",
"134",
"133",
"126",
"143",
"146",
"133",
"127",
"131",
"131",
"134",
"138",
"156",
"157",
"158",
"160",
"192",
"166",
"181",
"176",
"191",
"177",
"172",
"182",
"189",
"186",
"181",
"182",
"169",
"180",
"189",
"167",
"171",
"203",
"196",
"179",
"183",
"181",
"183",
"174",
"166",
"182",
"150",
"140",
"180",
"182",
"166",
"147",
"167",
"155",
"184",
"175",
"164",
"149",
"199",
"194",
"161",
"185",
"159",
"164",
"171",
"201",
"196",
"219",
"185",
"184",
"201",
"199",
"220",
"175",
"204",
"193",
"166",
"150",
"158",
"139",
"145",
"124",
"155",
"130",
"137",
"151",
"143",
"140",
"172",
"166",
"172",
"145",
"140",
"172",
"172",
"171",
"192",
"201",
"215",
"212",
"205",
"245",
"236",
"215",
"221",
"215",
"205",
"170",
"182",
"195",
"184",
"179",
"161",
"161",
"188",
"192",
"174",
"189",
"197",
"177",
"181",
"186",
"174",
"184",
"188",
"174",
"189",
"188",
"163",
"182",
"191",
"191",
"206",
"187",
"156",
"167",
"166",
"195",
"155",
"179",
"171",
"152",
"186",
"175",
"185",
"143",
"171",
"184",
"155",
"157",
"160",
"158",
"161",
"132",
"158",
"140",
"143",
"132",
"154",
"151",
"120",
"143",
"121",
"164",
"143",
"128",
"145",
"130",
"155",
"140",
"145",
"155",
"133",
"147",
"144",
"127",
"146",
"132",
"162",
"143",
"147",
"140",
"139",
"148",
"169",
"149",
"154",
"157",
"149",
"162",
"160",
"175",
"154",
"152",
"182",
"161",
"159",
"166",
"167",
"171",
"172",
"158",
"148",
"160",
"170",
"166",
"175",
"175",
"163",
"171",
"191",
"149",
"161",
"167",
"182",
"180",
"171",
"133",
"164",
"148",
"168",
"167",
"158",
"169",
"160",
"135",
"162",
"157",
"147",
"156",
"149",
"155",
"150",
"142",
"167",
"131",
"151",
"152",
"140",
"142",
"131",
"135",
"121",
"152",
"139",
"138",
"154",
"154",
"127",
"130",
"147",
"154",
"151",
"142",
"154",
"118",
"152",
"152",
"154",
"127",
"142",
"131",
"143",
"111",
"164",
"135",
"140",
"147",
"137",
"133",
"143",
"146",
"148",
"142",
"149",
"128",
"135",
"155",
"131",
"131",
"126",
"132",
"132",
"122",
"130",
"127",
"154",
"136",
"138",
"128",
"115",
"125",
"135",
"136",
"147",
"132",
"111",
"143",
"155",
"123",
"126",
"131",
"121",
"134",
"121",
"107",
"102",
"119",
"143",
"125",
"133",
"136",
"108",
"118",
"130",
"123",
"123",
"118",
"128",
"117",
"143",
"107",
"111",
"126",
"115",
"130",
"142",
"113",
"121",
"130",
"120",
"110",
"112",
"112",
"135",
"118",
"155",
"113",
"127",
"118",
"124",
"139",
"101",
"109",
"117",
"100",
"108",
"101",
"124",
"121",
"124",
"108",
"135",
"125",
"132",
"139",
"111",
"124",
"117",
"106",
"115",
"111",
"107",
"117",
"93",
"109",
"125",
"122",
"121",
"117",
"140",
"111",
"126",
"114",
"134",
"103",
"109",
"103",
"133",
"123",
"103",
"105",
"111",
"107",
"128",
"131",
"144",
"95",
"105",
"106",
"102",
"109",
"120",
"96",
"106",
"105",
"128",
"105",
"115",
"96",
"113",
"100",
"97",
"123",
"113",
"110",
"118",
"96",
"95",
"102",
"110",
"84",
"99",
"102",
"118",
"88",
"107",
"99",
"112",
"83",
"95",
"117",
"97",
"100",
"101",
"119",
"91",
"94",
"105",
"90",
"110",
"89",
"109",
"103",
"118",
"118",
"100",
"106",
"119",
"101",
"103",
"103",
"102",
"96",
"99",
"105",
"94",
"100",
"119",
"96",
"102",
"103",
"111",
"103",
"98",
"97",
"102",
"86",
"78",
"86",
"106",
"83",
"79",
"86",
"102",
"107",
"81",
"93",
"96",
"89",
"101",
"79",
"119",
"107",
"99",
"84",
"101",
"103",
"98",
"84",
"85",
"114",
"76",
"95",
"79",
"101",
"86",
"105",
"91",
"84",
"82",
"99",
"84",
"77",
"85",
"87",
"95",
"90",
"75",
"85",
"88",
"87",
"103",
"82",
"77",
"66",
"95",
"89",
"102",
"82",
"93",
"79",
"88",
"95",
"93",
"62",
"97",
"78",
"100",
"88",
"84",
"77",
"107",
"86",
"94",
"74",
"105",
"75",
"91",
"85",
"75",
"85",
"91",
"72",
"86",
"90",
"85",
"72",
"96",
"83",
"112",
"68",
"86",
"95",
"91",
"88",
"81",
"79",
"79",
"88",
"113",
"86",
"85",
"93",
"98",
"89",
"97",
"90",
"88",
"107",
"72",
"74",
"96",
"71",
"89",
"91",
"110",
"70",
"81",
"91",
"94",
"94",
"96",
"93",
"85",
"105",
"70",
"101",
"103",
"94",
"98",
"97",
"101",
"77",
"83",
"105",
"95",
"96",
"115",
"105",
"102",
"111",
"110",
"118",
"136",
"93",
"127",
"107",
"145",
"130",
"122",
"140",
"149",
"146",
"144",
"160",
"205",
"203",
"199",
"218",
"220",
"249",
"284",
"245",
"294",
"333",
"361",
"355",
"377",
"377",
"406",
"410",
"492",
"449",
"556",
"450",
"527",
"490",
"497",
"537",
"593",
"534",
"501",
"510",
"503",
"456",
"463",
"403",
"421",
"395",
"363",
"342",
"323",
"282",
"244",
"240",
"248",
"235",
"180",
"179",
"180",
"173",
"161",
"139",
"140",
"142",
"117",
"136",
"133",
"132",
"131",
"138",
"176",
"199",
"206",
"225",
"247",
"265",
"284",
"293",
"321",
"338",
"387",
"336",
"394",
"318",
"348",
"328",
"307",
"255",
"307",
"218",
"211",
"171",
"146",
"128",
"127",
"79",
"93",
"76",
"85",
"74",
"87",
"89",
"120932",
"Channel_info_start",
"Channel : Mg",
"Points : 0",
"Range : 0.000000 - 0.000000",
"Step : 0.010000",
"Channel_info_end",
"Channel_info_start",
"Channel : Al",
"Points : 0",
"Range : 0.000000 - 0.000000",
"Step : 0.010000",
"Channel_info_end",
"Channel_info_start",
"Channel : Si",
"Points : 0",
"Range : 0.000000 - 0.000000",
"Step : 0.010000",
"Channel_info_end",
"Channel_info_start",
"Channel : P ",
"Points : 0",
"Range : 0.000000 - 0.000000",
"Step : 0.010000",
"Channel_info_end",
"Channel_info_start",
"Channel : S ",
"Points : 0",
"Range : 0.000000 - 0.000000",
"Step : 0.010000",
"Channel_info_end",
"Channel_info_start",
"Channel : Cl",
"Points : 0",
"Range : 0.000000 - 0.000000",
"Step : 0.010000",
"Channel_info_end",
"Channel_info_start",
"Channel : K ",
"Points : 0",
"Range : 0.000000 - 0.000000",
"Step : 0.010000",
"Channel_info_end",
"Channel_info_start",
"Channel : Ca",
"Points : 0",
"Range : 0.000000 - 0.000000",
"Step : 0.010000",
"Channel_info_end",
"Channel_info_start",
"Channel : Ti",
"Points : 0",
"Range : 0.000000 - 0.000000",
"Step : 0.010000",
"Channel_info_end",
"Channel_info_start",
"Channel : V ",
"Points : 0",
"Range : 0.000000 - 0.000000",
"Step : 0.010000",
"Channel_info_end",
"Channel_info_start",
"Channel : Cr",
"Points : 0",
"Range : 0.000000 - 0.000000",
"Step : 0.010000",
"Channel_info_end",
"Channel_info_start",
"Channel : Mn",
"Points : 0",
"Range : 0.000000 - 0.000000",
"Step : 0.010000",
"Channel_info_end",
"Channel_info_start",
"Channel : Fe",
"Points : 0",
"Range : 0.000000 - 0.000000",
"Step : 0.010000",
"Channel_info_end",
"Channel_info_start",
"Channel : Cu",
"Points : 0",
"Range : 0.000000 - 0.000000",
"Step : 0.010000",
"Channel_info_end",
"Channel_info_start",
"Channel : Zn",
"Points : 0",
"Range : 0.000000 - 0.000000",
"Step : 0.010000",
"Channel_info_end",
"Channel_info_start",
"Channel : Sr",
"Points : 0",
"Range : 0.000000 - 0.000000",
"Step : 0.010000",
"Channel_info_end",
"Channel_info_start",
"Channel : Pb",
"Points : 0",
"Range : 0.000000 - 0.000000",
"Step : 0.010000",
"Channel_info_end",
"",
"Qualitative Result",
"--------------------------------------------------------------------------------",
"Element :  Sb, P , Te, Ru",
"",
"Peak List",
"--------------------------------------------------------------------------------",
"Channel               Line        keV     Net Int.(cps/uA)",
"--------------------------------------------------------------------------------",
"Na                    SbLaESC      1.86     0.028",
"                      P Ka         2.04     0.025",
"                      SbLL         3.19     0.099",
"                      SbLa         3.60     2.864",
"                      SbLb1        3.84     1.461",
"                      TeLa         3.84     0.315",
"                      TeLb1        4.03     0.161",
"                      SbLb2        4.10     0.328",
"                      SbLg1        4.35     0.128",
"                      SbLg2        4.60     0.114",
"                      RuKa        19.21     0.141",
"                      ----        19.45     0.052",
"                      ----        19.91     0.044",
"--------------------------------------------------------------------------------",
"",
"Quantitative Result",
"--------------------------------------------------------------------------------",
"Analyte               Result             Std.Dev. Proc.-Calc. Line Intensity(cps/uA)",
"--------------------------------------------------------------------------------",
"====[No. 1 Layer]====< Layer1               >===============================",
"Layer1                   0.000 ug/cm2    -------- Flux       -------- --------",