File: inputs/edxCalibration/edx_raw/2010/junho/SdSe 15766.20100526000201.csv
"Sample    : SdSe 15766",
"Operator  : luisf",
"Comment  : cubatao-g-policarbonato",
"Group     : kerr2007ag180cal_lt",
"Date       : 2010-05-25 23:58:00",
"",
"Mesurement Condition",
"------------------------------------------------------------------------------------",
"Instrument : 700HS2   Atmosphere : Vac.   Collimator : 10(mm)   Spin : No",
"------------------------------------------------------------------------------------",
"Analyte               TG kV   uA      FI Acq.(keV)  Anal.(keV)  Time(sec)     DT(%)",
"------------------------------------------------------------------------------------",
"Na                    Rh 50  237-Auto Al  0 - 20    0.8 - 1.2   Live -  179   14",
"",
"<Profile>",
"Channel_info_start",
"Channel : Na",
"Points : 2048",
"Range : 0.000000 - 20.48",
"Step : 0.010000",
"Channel_info_end",
"0",
"0",
"0",
"0",
"0",
"0",
"0",
"0",
"0",
"0",
"0",
"0",
"0",
"0",
"0",
"11",
"28",
"26",
"36",
"33",
"30",
"33",
"36",
"33",
"21",
"27",
"36",
"33",
"28",
"25",
"28",
"26",
"27",
"16",
"44",
"26",
"25",
"21",
"28",
"23",
"22",
"26",
"25",
"22",
"24",
"22",
"17",
"29",
"17",
"29",
"22",
"28",
"30",
"36",
"26",
"27",
"38",
"31",
"40",
"60",
"71",
"60",
"79",
"82",
"97",
"129",
"243",
"405",
"607",
"782",
"806",
"755",
"636",
"453",
"339",
"193",
"143",
"121",
"88",
"72",
"73",
"51",
"44",
"42",
"37",
"43",
"39",
"45",
"40",
"42",
"30",
"25",
"28",
"41",
"31",
"40",
"39",
"38",
"55",
"54",
"81",
"72",
"55",
"41",
"43",
"41",
"25",
"27",
"32",
"30",
"31",
"38",
"39",
"43",
"57",
"58",
"51",
"48",
"48",
"42",
"31",
"31",
"32",
"40",
"33",
"22",
"29",
"39",
"31",
"46",
"48",
"56",
"48",
"77",
"85",
"129",
"156",
"192",
"215",
"231",
"196",
"179",
"142",
"104",
"108",
"119",
"119",
"120",
"163",
"173",
"280",
"420",
"741",
"1406",
"2240",
"3018",
"3909",
"3968",
"3685",
"2877",
"2086",
"1445",
"1252",
"1236",
"1604",
"1845",
"2192",
"1991",
"1799",
"1573",
"1211",
"935",
"731",
"530",
"497",
"507",
"550",
"494",
"475",
"449",
"441",
"443",
"533",
"627",
"748",
"737",
"695",
"580",
"431",
"288",
"185",
"121",
"105",
"105",
"111",
"140",
"140",
"161",
"191",
"200",
"160",
"127",
"139",
"107",
"68",
"52",
"40",
"36",
"36",
"23",
"28",
"27",
"35",
"37",
"33",
"52",
"29",
"29",
"39",
"41",
"41",
"36",
"29",
"55",
"32",
"44",
"48",
"45",
"44",
"41",
"40",
"46",
"36",
"48",
"36",
"38",
"39",
"46",
"41",
"33",
"46",
"32",
"45",
"37",
"45",
"37",
"35",
"30",
"32",
"36",
"33",
"44",
"36",
"33",
"41",
"55",
"41",
"52",
"45",
"37",
"42",
"37",
"36",
"38",
"55",
"40",
"41",
"58",
"59",
"38",
"63",
"49",
"54",
"63",
"46",
"46",
"67",
"45",
"56",
"52",
"52",
"51",
"58",
"63",
"73",
"44",
"67",
"57",
"66",
"79",
"64",
"69",
"83",
"57",
"77",
"48",
"66",
"60",
"83",
"82",
"81",
"66",
"75",
"86",
"91",
"58",
"94",
"86",
"80",
"83",
"96",
"71",
"95",
"83",
"75",
"88",
"97",
"108",
"94",
"104",
"117",
"95",
"95",
"104",
"86",
"106",
"93",
"100",
"91",
"111",
"107",
"75",
"89",
"93",
"86",
"96",
"84",
"92",
"115",
"112",
"113",
"104",
"94",
"110",
"99",
"102",
"98",
"111",
"108",
"99",
"108",
"91",
"93",
"117",
"90",
"94",
"108",
"94",
"97",
"78",
"108",
"94",
"119",
"94",
"96",
"91",
"102",
"97",
"97",
"98",
"86",
"120",
"109",
"110",
"116",
"100",
"95",
"103",
"99",
"119",
"108",
"107",
"109",
"104",
"100",
"112",
"106",
"110",
"95",
"116",
"86",
"107",
"110",
"95",
"115",
"112",
"113",
"118",
"120",
"133",
"119",
"131",
"134",
"122",
"126",
"119",
"126",
"107",
"106",
"95",
"91",
"90",
"98",
"89",
"122",
"123",
"77",
"78",
"110",
"84",
"88",
"79",
"97",
"102",
"99",
"138",
"116",
"134",
"154",
"158",
"169",
"152",
"164",
"176",
"153",
"139",
"129",
"111",
"122",
"129",
"127",
"127",
"111",
"106",
"107",
"113",
"95",
"100",
"118",
"83",
"98",
"102",
"107",
"96",
"105",
"115",
"94",
"90",
"92",
"99",
"111",
"99",
"100",
"132",
"92",
"91",
"102",
"127",
"116",
"105",
"118",
"135",
"113",
"123",
"144",
"113",
"133",
"120",
"123",
"105",
"118",
"123",
"102",
"99",
"100",
"84",
"111",
"113",
"115",
"93",
"98",
"94",
"116",
"115",
"102",
"106",
"107",
"84",
"96",
"121",
"102",
"82",
"89",
"94",
"121",
"109",
"103",
"102",
"97",
"102",
"107",
"102",
"120",
"93",
"96",
"95",
"84",
"107",
"104",
"86",
"96",
"83",
"106",
"92",
"98",
"96",
"122",
"103",
"109",
"109",
"136",
"112",
"126",
"105",
"104",
"100",
"110",
"85",
"135",
"129",
"110",
"127",
"131",
"158",
"144",
"186",
"214",
"333",
"474",
"719",
"1103",
"1754",
"2837",
"3967",
"5411",
"6951",
"9112",
"10541",
"12032",
"12628",
"13789",
"12826",
"12237",
"10571",
"9057",
"7012",
"5627",
"3922",
"2846",
"1849",
"1262",
"744",
"476",
"308",
"201",
"160",
"146",
"130",
"108",
"110",
"99",
"121",
"102",
"116",
"99",
"98",
"109",
"104",
"102",
"102",
"122",
"108",
"106",
"110",
"99",
"102",
"115",
"91",
"109",
"102",
"122",
"98",
"122",
"106",
"110",
"99",
"129",
"134",
"126",
"132",
"108",
"144",
"196",
"220",
"302",
"376",
"517",
"672",
"902",
"1087",
"1341",
"1520",
"1775",
"1882",
"2104",
"1967",
"1853",
"1721",
"1521",
"1304",
"1041",
"883",
"643",
"546",
"423",
"314",
"233",
"185",
"169",
"137",
"130",
"106",
"107",
"73",
"88",
"80",
"84",
"94",
"72",
"88",
"81",
"75",
"75",
"95",
"71",
"66",
"71",
"70",
"90",
"94",
"82",
"77",
"84",
"79",
"78",
"93",
"62",
"72",
"81",
"63",
"66",
"71",
"76",
"91",
"77",
"90",
"69",
"73",
"77",
"84",
"75",
"75",
"72",
"72",
"73",
"65",
"70",
"71",
"103",
"77",
"76",
"73",
"69",
"58",
"70",
"86",
"68",
"60",
"76",
"83",
"77",
"76",
"72",
"52",
"83",
"68",
"67",
"73",
"82",
"78",
"62",
"63",
"59",
"83",
"78",
"86",
"79",
"85",
"93",
"80",
"88",
"71",
"73",
"52",
"78",
"78",
"72",
"73",
"69",
"62",
"67",
"58",
"67",
"63",
"71",
"77",
"77",
"68",
"51",
"64",
"64",
"70",
"82",
"58",
"68",
"73",
"57",
"60",
"89",
"62",
"62",
"53",
"64",
"62",
"80",
"58",
"77",
"60",
"59",
"73",
"68",
"69",
"48",
"56",
"69",
"72",
"70",
"63",
"55",
"85",
"65",
"57",
"57",
"52",
"50",
"68",
"54",
"60",
"69",
"59",
"64",
"54",
"63",
"60",
"68",
"52",
"60",
"54",
"78",
"65",
"67",
"52",
"78",
"72",
"62",
"62",
"56",
"66",
"60",
"54",
"59",
"67",
"62",
"55",
"53",
"49",
"48",
"42",
"56",
"40",
"60",
"72",
"66",
"53",
"50",
"51",
"65",
"56",
"71",
"52",
"56",
"70",
"60",
"55",
"79",
"54",
"67",
"64",
"57",
"60",
"43",
"68",
"58",
"49",
"60",
"43",
"60",
"56",
"50",
"64",
"50",
"66",
"57",
"58",
"56",
"53",
"73",
"51",
"67",
"48",
"65",
"54",
"52",
"69",
"60",
"64",
"55",
"68",
"51",
"52",
"62",
"56",
"63",
"49",
"54",
"48",
"52",
"53",
"69",
"59",
"51",
"60",
"52",
"51",
"65",
"64",
"45",
"52",
"57",
"58",
"68",
"57",
"44",
"59",
"57",
"51",
"40",
"39",
"60",
"48",
"50",
"51",
"51",
"41",
"70",
"60",
"59",
"59",
"69",
"41",
"56",
"57",
"59",
"49",
"50",
"65",
"59",
"63",
"65",
"55",
"59",
"63",
"67",
"63",
"59",
"49",
"66",
"68",
"78",
"85",
"80",
"73",
"54",
"76",
"67",
"83",
"89",
"78",
"100",
"98",
"117",
"68",
"105",
"94",
"98",
"108",
"110",
"121",
"118",
"124",
"146",
"158",
"186",
"179",
"213",
"180",
"219",
"230",
"243",
"255",
"275",
"280",
"294",
"314",
"338",
"328",
"363",
"345",
"362",
"327",
"377",
"335",
"329",
"309",
"352",
"302",
"291",
"309",
"309",
"265",
"267",
"229",
"226",
"184",
"199",
"170",
"188",
"144",
"154",
"137",
"116",
"115",
"102",
"109",
"102",
"71",
"89",
"84",
"104",
"92",
"97",
"98",
"111",
"92",
"100",
"121",
"133",
"147",
"171",
"161",
"186",
"184",
"208",
"200",
"217",
"210",
"199",
"187",
"188",
"174",
"158",
"126",
"126",
"102",
"96",
"86",
"89",
"72",
"81",
"53",
"68",
"49",
"59",
"53",
"84246",
"Channel_info_start",
"Channel : Mg",
"Points : 0",
"Range : 0.000000 - 0.000000",
"Step : 0.010000",
"Channel_info_end",
"Channel_info_start",
"Channel : Al",
"Points : 0",
"Range : 0.000000 - 0.000000",
"Step : 0.010000",
"Channel_info_end",
"Channel_info_start",
"Channel : Si",
"Points : 0",
"Range : 0.000000 - 0.000000",
"Step : 0.010000",
"Channel_info_end",
"Channel_info_start",
"Channel : P ",
"Points : 0",
"Range : 0.000000 - 0.000000",
"Step : 0.010000",
"Channel_info_end",
"Channel_info_start",
"Channel : S ",
"Points : 0",
"Range : 0.000000 - 0.000000",
"Step : 0.010000",
"Channel_info_end",
"Channel_info_start",
"Channel : Cl",
"Points : 0",
"Range : 0.000000 - 0.000000",
"Step : 0.010000",
"Channel_info_end",
"Channel_info_start",
"Channel : K ",
"Points : 0",
"Range : 0.000000 - 0.000000",
"Step : 0.010000",
"Channel_info_end",
"Channel_info_start",
"Channel : Ca",
"Points : 0",
"Range : 0.000000 - 0.000000",
"Step : 0.010000",
"Channel_info_end",
"Channel_info_start",
"Channel : Ti",
"Points : 0",
"Range : 0.000000 - 0.000000",
"Step : 0.010000",
"Channel_info_end",
"Channel_info_start",
"Channel : V ",
"Points : 0",
"Range : 0.000000 - 0.000000",
"Step : 0.010000",
"Channel_info_end",
"Channel_info_start",
"Channel : Cr",
"Points : 0",
"Range : 0.000000 - 0.000000",
"Step : 0.010000",
"Channel_info_end",
"Channel_info_start",
"Channel : Mn",
"Points : 0",
"Range : 0.000000 - 0.000000",
"Step : 0.010000",
"Channel_info_end",
"Channel_info_start",
"Channel : Fe",
"Points : 0",
"Range : 0.000000 - 0.000000",
"Step : 0.010000",
"Channel_info_end",
"Channel_info_start",
"Channel : Cu",
"Points : 0",
"Range : 0.000000 - 0.000000",
"Step : 0.010000",
"Channel_info_end",
"Channel_info_start",
"Channel : Zn",
"Points : 0",
"Range : 0.000000 - 0.000000",
"Step : 0.010000",
"Channel_info_end",
"Channel_info_start",
"Channel : Sr",
"Points : 0",
"Range : 0.000000 - 0.000000",
"Step : 0.010000",
"Channel_info_end",
"Channel_info_start",
"Channel : Pb",
"Points : 0",
"Range : 0.000000 - 0.000000",
"Step : 0.010000",
"Channel_info_end",
"",
"Qualitative Result",
"--------------------------------------------------------------------------------",
"Element :  Se, P , Cd, Ca, Zn, Ru",
"",
"Peak List",
"--------------------------------------------------------------------------------",
"Channel               Line        keV     Net Int.(cps/uA)",
"--------------------------------------------------------------------------------",
"Na                    SeLa         1.40     0.214",
"                      P Ka         2.00     0.014",
"                      CdLL         2.78     0.046",
"                      CdLa         3.13     1.222",
"                      CdLb1        3.32     0.643",
"                      CdLb2        3.55     0.106",
"                      CdLg1        3.69     0.061",
"                      CaKa         3.69     0.137",
"                      CdLg2        3.98     0.037",
"                      ZnKa         8.59     0.029",
"                      SeKa        11.20     6.151",
"                      SeKb        12.48     0.932",
"                      ----        19.08     0.124",
"                      RuKa        19.35     0.114",
"                      ----        20.01     0.067",
"--------------------------------------------------------------------------------",
"",
"Quantitative Result",
"--------------------------------------------------------------------------------",
"Analyte               Result             Std.Dev. Proc.-Calc. Line Intensity(cps/uA)",
"--------------------------------------------------------------------------------",
"====[No. 1 Layer]====< Layer1               >===============================",
"Layer1                   0.000 ug/cm2    -------- Flux       -------- --------",