File: inputs/edxCalibration/edx_raw/2010/junho/Se 15759.20100525224908.csv
"Sample    : Se 15759",
"Operator  : luisf",
"Comment  : cubatao-g-policarbonato",
"Group     : kerr2007ag180cal_lt",
"Date       : 2010-05-25 22:43:11",
"",
"Mesurement Condition",
"------------------------------------------------------------------------------------",
"Instrument : 700HS2   Atmosphere : Vac.   Collimator : 10(mm)   Spin : No",
"------------------------------------------------------------------------------------",
"Analyte               TG kV   uA      FI Acq.(keV)  Anal.(keV)  Time(sec)     DT(%)",
"------------------------------------------------------------------------------------",
"Na                    Rh 50  168-Auto Al  0 - 20    0.8 - 1.2   Live -  179   15",
"",
"<Profile>",
"Channel_info_start",
"Channel : Na",
"Points : 2048",
"Range : 0.000000 - 20.48",
"Step : 0.010000",
"Channel_info_end",
"0",
"0",
"0",
"0",
"0",
"0",
"0",
"0",
"0",
"0",
"0",
"0",
"0",
"0",
"0",
"5",
"31",
"20",
"21",
"28",
"26",
"17",
"17",
"20",
"23",
"20",
"17",
"16",
"23",
"22",
"23",
"16",
"20",
"23",
"15",
"11",
"17",
"13",
"15",
"24",
"12",
"12",
"13",
"8",
"15",
"10",
"8",
"10",
"10",
"11",
"16",
"13",
"20",
"18",
"14",
"17",
"16",
"30",
"59",
"62",
"88",
"81",
"86",
"101",
"118",
"188",
"398",
"660",
"993",
"1168",
"1310",
"1210",
"919",
"677",
"461",
"305",
"170",
"82",
"61",
"35",
"33",
"20",
"23",
"25",
"21",
"18",
"21",
"15",
"4",
"17",
"16",
"15",
"17",
"12",
"14",
"13",
"26",
"17",
"28",
"30",
"46",
"28",
"37",
"26",
"13",
"16",
"15",
"16",
"12",
"9",
"12",
"13",
"13",
"9",
"11",
"11",
"12",
"17",
"11",
"8",
"9",
"9",
"14",
"11",
"10",
"7",
"10",
"9",
"8",
"9",
"10",
"13",
"10",
"16",
"12",
"17",
"4",
"10",
"10",
"9",
"15",
"12",
"14",
"11",
"23",
"8",
"10",
"11",
"18",
"9",
"8",
"11",
"7",
"7",
"9",
"12",
"14",
"14",
"16",
"8",
"10",
"11",
"16",
"9",
"15",
"13",
"7",
"7",
"5",
"7",
"10",
"9",
"15",
"9",
"7",
"15",
"22",
"33",
"67",
"81",
"143",
"214",
"282",
"293",
"370",
"400",
"329",
"259",
"176",
"115",
"61",
"46",
"44",
"31",
"26",
"36",
"37",
"38",
"52",
"66",
"59",
"49",
"64",
"51",
"44",
"30",
"34",
"24",
"20",
"21",
"25",
"18",
"20",
"25",
"21",
"26",
"28",
"12",
"29",
"24",
"30",
"28",
"37",
"24",
"28",
"41",
"35",
"34",
"35",
"36",
"31",
"34",
"41",
"29",
"40",
"34",
"42",
"23",
"44",
"33",
"38",
"25",
"28",
"29",
"36",
"38",
"37",
"34",
"39",
"22",
"29",
"22",
"28",
"26",
"27",
"31",
"28",
"24",
"25",
"34",
"47",
"36",
"26",
"34",
"31",
"36",
"33",
"31",
"33",
"36",
"33",
"41",
"46",
"38",
"29",
"44",
"43",
"36",
"31",
"37",
"29",
"30",
"40",
"37",
"37",
"23",
"42",
"34",
"40",
"43",
"43",
"48",
"35",
"35",
"38",
"50",
"44",
"41",
"49",
"51",
"53",
"46",
"39",
"37",
"43",
"59",
"49",
"49",
"62",
"56",
"47",
"51",
"50",
"48",
"68",
"59",
"68",
"69",
"63",
"62",
"64",
"65",
"74",
"60",
"64",
"82",
"65",
"57",
"57",
"49",
"59",
"61",
"57",
"54",
"54",
"64",
"67",
"50",
"63",
"66",
"52",
"77",
"68",
"69",
"64",
"67",
"65",
"79",
"77",
"57",
"69",
"67",
"77",
"76",
"73",
"88",
"77",
"61",
"69",
"72",
"66",
"61",
"68",
"80",
"48",
"64",
"77",
"69",
"72",
"72",
"60",
"73",
"85",
"53",
"84",
"68",
"66",
"63",
"62",
"65",
"79",
"60",
"72",
"71",
"76",
"62",
"92",
"81",
"77",
"49",
"51",
"64",
"75",
"68",
"66",
"73",
"86",
"90",
"92",
"110",
"101",
"98",
"124",
"110",
"97",
"72",
"71",
"100",
"65",
"78",
"74",
"64",
"75",
"57",
"59",
"67",
"65",
"75",
"63",
"67",
"69",
"68",
"78",
"80",
"80",
"87",
"92",
"91",
"118",
"100",
"114",
"111",
"118",
"92",
"127",
"99",
"78",
"94",
"85",
"74",
"76",
"77",
"81",
"82",
"79",
"78",
"56",
"78",
"82",
"67",
"81",
"78",
"64",
"61",
"89",
"63",
"74",
"79",
"61",
"71",
"59",
"82",
"65",
"57",
"65",
"77",
"75",
"92",
"75",
"95",
"99",
"97",
"99",
"92",
"78",
"90",
"79",
"86",
"77",
"78",
"92",
"77",
"69",
"71",
"66",
"55",
"74",
"54",
"73",
"82",
"85",
"68",
"71",
"74",
"60",
"69",
"69",
"67",
"72",
"53",
"71",
"67",
"76",
"63",
"63",
"73",
"79",
"85",
"76",
"63",
"68",
"57",
"78",
"63",
"69",
"68",
"88",
"69",
"76",
"67",
"76",
"67",
"80",
"76",
"82",
"71",
"89",
"63",
"85",
"91",
"77",
"90",
"93",
"105",
"107",
"94",
"101",
"118",
"107",
"113",
"115",
"130",
"128",
"153",
"153",
"230",
"287",
"457",
"764",
"1261",
"2018",
"3125",
"4849",
"6927",
"9733",
"12502",
"16002",
"18094",
"21505",
"22193",
"23878",
"21957",
"20756",
"18220",
"15393",
"11727",
"9087",
"6449",
"4548",
"2732",
"1836",
"1162",
"704",
"366",
"252",
"176",
"144",
"114",
"89",
"81",
"107",
"88",
"90",
"74",
"104",
"88",
"95",
"79",
"81",
"104",
"75",
"106",
"73",
"84",
"92",
"80",
"92",
"94",
"89",
"87",
"79",
"99",
"98",
"81",
"101",
"116",
"135",
"117",
"118",
"139",
"157",
"174",
"242",
"303",
"449",
"606",
"872",
"1177",
"1517",
"1924",
"2402",
"2780",
"3210",
"3212",
"3476",
"3341",
"3156",
"2811",
"2502",
"2022",
"1661",
"1276",
"1058",
"782",
"555",
"423",
"318",
"260",
"192",
"133",
"128",
"82",
"61",
"54",
"68",
"60",
"59",
"51",
"50",
"56",
"46",
"47",
"48",
"35",
"56",
"53",
"54",
"46",
"50",
"65",
"43",
"53",
"65",
"51",
"41",
"47",
"41",
"50",
"64",
"52",
"46",
"36",
"48",
"42",
"48",
"50",
"35",
"34",
"67",
"44",
"50",
"42",
"55",
"59",
"35",
"39",
"47",
"54",
"46",
"35",
"47",
"47",
"43",
"49",
"53",
"65",
"37",
"37",
"33",
"47",
"57",
"43",
"48",
"42",
"55",
"48",
"46",
"38",
"46",
"39",
"40",
"49",
"50",
"35",
"55",
"36",
"46",
"53",
"52",
"38",
"43",
"44",
"37",
"47",
"46",
"53",
"35",
"35",
"42",
"37",
"54",
"51",
"47",
"35",
"48",
"38",
"42",
"47",
"34",
"46",
"55",
"46",
"55",
"48",
"44",
"41",
"42",
"36",
"44",
"36",
"34",
"46",
"39",
"41",
"42",
"37",
"36",
"47",
"33",
"29",
"40",
"34",
"41",
"31",
"42",
"36",
"40",
"47",
"47",
"40",
"42",
"37",
"31",
"40",
"41",
"47",
"40",
"39",
"50",
"46",
"49",
"50",
"40",
"38",
"50",
"49",
"33",
"48",
"30",
"50",
"47",
"40",
"42",
"38",
"36",
"28",
"35",
"41",
"44",
"30",
"42",
"34",
"35",
"36",
"40",
"30",
"30",
"39",
"33",
"37",
"41",
"26",
"42",
"31",
"40",
"52",
"34",
"34",
"46",
"33",
"33",
"38",
"38",
"42",
"36",
"43",
"33",
"38",
"41",
"38",
"31",
"34",
"48",
"37",
"43",
"41",
"25",
"30",
"36",
"49",
"27",
"38",
"39",
"34",
"48",
"47",
"29",
"21",
"33",
"47",
"46",
"38",
"35",
"40",
"40",
"30",
"48",
"42",
"51",
"29",
"36",
"40",
"52",
"28",
"41",
"30",
"53",
"36",
"38",
"40",
"29",
"34",
"41",
"34",
"41",
"33",
"43",
"42",
"42",
"40",
"41",
"43",
"42",
"36",
"26",
"22",
"41",
"35",
"27",
"39",
"34",
"42",
"39",
"36",
"42",
"39",
"43",
"41",
"38",
"49",
"37",
"41",
"37",
"48",
"36",
"40",
"36",
"46",
"41",
"28",
"39",
"31",
"41",
"40",
"47",
"49",
"60",
"38",
"60",
"52",
"42",
"42",
"52",
"51",
"55",
"49",
"42",
"56",
"60",
"54",
"57",
"68",
"57",
"71",
"73",
"77",
"84",
"98",
"81",
"90",
"107",
"104",
"106",
"139",
"149",
"145",
"154",
"153",
"182",
"189",
"206",
"205",
"230",
"230",
"228",
"225",
"247",
"241",
"254",
"240",
"252",
"239",
"263",
"216",
"227",
"225",
"216",
"194",
"223",
"174",
"161",
"171",
"156",
"131",
"154",
"132",
"124",
"112",
"111",
"88",
"100",
"91",
"74",
"72",
"74",
"56",
"52",
"69",
"57",
"57",
"57",
"60",
"85",
"59",
"92",
"90",
"81",
"97",
"113",
"119",
"110",
"120",
"135",
"127",
"120",
"101",
"120",
"120",
"124",
"119",
"101",
"66",
"56",
"61",
"61",
"51",
"39",
"50",
"48",
"29",
"41",
"28",
"37",
"25",
"19458",
"Channel_info_start",
"Channel : Mg",
"Points : 0",
"Range : 0.000000 - 0.000000",
"Step : 0.010000",
"Channel_info_end",
"Channel_info_start",
"Channel : Al",
"Points : 0",
"Range : 0.000000 - 0.000000",
"Step : 0.010000",
"Channel_info_end",
"Channel_info_start",
"Channel : Si",
"Points : 0",
"Range : 0.000000 - 0.000000",
"Step : 0.010000",
"Channel_info_end",
"Channel_info_start",
"Channel : P ",
"Points : 0",
"Range : 0.000000 - 0.000000",
"Step : 0.010000",
"Channel_info_end",
"Channel_info_start",
"Channel : S ",
"Points : 0",
"Range : 0.000000 - 0.000000",
"Step : 0.010000",
"Channel_info_end",
"Channel_info_start",
"Channel : Cl",
"Points : 0",
"Range : 0.000000 - 0.000000",
"Step : 0.010000",
"Channel_info_end",
"Channel_info_start",
"Channel : K ",
"Points : 0",
"Range : 0.000000 - 0.000000",
"Step : 0.010000",
"Channel_info_end",
"Channel_info_start",
"Channel : Ca",
"Points : 0",
"Range : 0.000000 - 0.000000",
"Step : 0.010000",
"Channel_info_end",
"Channel_info_start",
"Channel : Ti",
"Points : 0",
"Range : 0.000000 - 0.000000",
"Step : 0.010000",
"Channel_info_end",
"Channel_info_start",
"Channel : V ",
"Points : 0",
"Range : 0.000000 - 0.000000",
"Step : 0.010000",
"Channel_info_end",
"Channel_info_start",
"Channel : Cr",
"Points : 0",
"Range : 0.000000 - 0.000000",
"Step : 0.010000",
"Channel_info_end",
"Channel_info_start",
"Channel : Mn",
"Points : 0",
"Range : 0.000000 - 0.000000",
"Step : 0.010000",
"Channel_info_end",
"Channel_info_start",
"Channel : Fe",
"Points : 0",
"Range : 0.000000 - 0.000000",
"Step : 0.010000",
"Channel_info_end",
"Channel_info_start",
"Channel : Cu",
"Points : 0",
"Range : 0.000000 - 0.000000",
"Step : 0.010000",
"Channel_info_end",
"Channel_info_start",
"Channel : Zn",
"Points : 0",
"Range : 0.000000 - 0.000000",
"Step : 0.010000",
"Channel_info_end",
"Channel_info_start",
"Channel : Sr",
"Points : 0",
"Range : 0.000000 - 0.000000",
"Step : 0.010000",
"Channel_info_end",
"Channel_info_start",
"Channel : Pb",
"Points : 0",
"Range : 0.000000 - 0.000000",
"Step : 0.010000",
"Channel_info_end",
"",
"Qualitative Result",
"--------------------------------------------------------------------------------",
"Element :  Mg, Se, P , Ca, Ru",
"",
"Peak List",
"--------------------------------------------------------------------------------",
"Channel               Line        keV     Net Int.(cps/uA)",
"--------------------------------------------------------------------------------",
"Na                    MgKa         1.20     0.014",
"                      SeLa         1.40     0.494",
"                      P Ka         2.00     0.013",
"                      CaKa         3.69     0.179",
"                      CaKb         4.00     0.026",
"                      SeKa        11.20    14.999",
"                      SeKb        12.49     2.178",
"                      RuKa        19.20     0.141",
"--------------------------------------------------------------------------------",
"",
"Quantitative Result",
"--------------------------------------------------------------------------------",
"Analyte               Result             Std.Dev. Proc.-Calc. Line Intensity(cps/uA)",
"--------------------------------------------------------------------------------",
"====[No. 1 Layer]====< Layer1               >===============================",
"Layer1                   4.547 ug/cm2    -------- Flux       -------- --------",
"Mg                       4.547 ug/cm2    -------- ********** -------- --------",