File: inputs/edxCalibration/edx_raw/2010/junho/Se 31505.20100525225312.csv
"Sample    : Se 31505",
"Operator  : luisf",
"Comment  : cubatao-g-policarbonato",
"Group     : kerr2007ag180cal_lt",
"Date       : 2010-05-25 22:49:07",
"",
"Mesurement Condition",
"------------------------------------------------------------------------------------",
"Instrument : 700HS2   Atmosphere : Vac.   Collimator : 10(mm)   Spin : No",
"------------------------------------------------------------------------------------",
"Analyte               TG kV   uA      FI Acq.(keV)  Anal.(keV)  Time(sec)     DT(%)",
"------------------------------------------------------------------------------------",
"Na                    Rh 50  168-Auto Al  0 - 20    0.8 - 1.2   Live -  179   16",
"",
"<Profile>",
"Channel_info_start",
"Channel : Na",
"Points : 2048",
"Range : 0.000000 - 20.48",
"Step : 0.010000",
"Channel_info_end",
"0",
"0",
"0",
"0",
"0",
"0",
"0",
"0",
"0",
"0",
"0",
"0",
"0",
"0",
"0",
"7",
"27",
"20",
"36",
"15",
"24",
"19",
"29",
"16",
"20",
"27",
"19",
"20",
"15",
"17",
"16",
"27",
"16",
"24",
"7",
"17",
"19",
"12",
"17",
"7",
"15",
"11",
"17",
"11",
"17",
"11",
"8",
"19",
"11",
"17",
"23",
"11",
"13",
"21",
"16",
"23",
"15",
"29",
"50",
"64",
"81",
"87",
"114",
"95",
"110",
"200",
"389",
"726",
"1074",
"1365",
"1480",
"1189",
"973",
"742",
"530",
"308",
"187",
"107",
"76",
"41",
"32",
"32",
"25",
"19",
"22",
"25",
"11",
"22",
"16",
"10",
"21",
"15",
"13",
"15",
"16",
"21",
"23",
"28",
"39",
"50",
"65",
"62",
"44",
"38",
"29",
"19",
"13",
"12",
"10",
"15",
"16",
"7",
"13",
"9",
"12",
"14",
"21",
"12",
"12",
"14",
"12",
"4",
"9",
"11",
"10",
"11",
"17",
"4",
"8",
"14",
"15",
"12",
"11",
"8",
"10",
"17",
"11",
"8",
"16",
"9",
"10",
"14",
"14",
"21",
"14",
"15",
"12",
"14",
"8",
"9",
"7",
"8",
"10",
"8",
"13",
"10",
"10",
"17",
"11",
"10",
"8",
"8",
"17",
"12",
"14",
"12",
"9",
"12",
"7",
"20",
"16",
"9",
"11",
"15",
"12",
"17",
"32",
"39",
"42",
"112",
"174",
"268",
"439",
"541",
"639",
"631",
"571",
"456",
"334",
"185",
"102",
"57",
"40",
"45",
"32",
"51",
"51",
"44",
"77",
"84",
"85",
"99",
"95",
"66",
"56",
"51",
"28",
"22",
"13",
"23",
"14",
"22",
"24",
"30",
"29",
"16",
"25",
"26",
"36",
"17",
"27",
"33",
"35",
"29",
"40",
"35",
"36",
"45",
"34",
"40",
"40",
"37",
"24",
"49",
"42",
"35",
"36",
"28",
"41",
"29",
"30",
"41",
"44",
"37",
"26",
"36",
"22",
"30",
"27",
"25",
"32",
"30",
"32",
"24",
"40",
"32",
"27",
"32",
"26",
"26",
"26",
"30",
"32",
"40",
"28",
"36",
"35",
"40",
"40",
"32",
"34",
"42",
"28",
"46",
"42",
"32",
"29",
"34",
"38",
"37",
"32",
"33",
"29",
"32",
"45",
"36",
"45",
"48",
"41",
"45",
"50",
"51",
"39",
"41",
"42",
"46",
"35",
"40",
"42",
"63",
"50",
"58",
"44",
"48",
"45",
"45",
"62",
"56",
"49",
"50",
"60",
"52",
"64",
"58",
"50",
"58",
"46",
"56",
"62",
"57",
"71",
"54",
"54",
"74",
"65",
"75",
"57",
"60",
"69",
"69",
"53",
"54",
"71",
"62",
"77",
"63",
"64",
"78",
"65",
"70",
"88",
"71",
"74",
"65",
"53",
"70",
"71",
"70",
"63",
"69",
"70",
"71",
"80",
"66",
"68",
"83",
"75",
"53",
"65",
"70",
"59",
"74",
"56",
"77",
"70",
"66",
"65",
"75",
"80",
"72",
"72",
"70",
"102",
"76",
"83",
"81",
"72",
"80",
"77",
"69",
"83",
"71",
"75",
"70",
"74",
"63",
"56",
"56",
"74",
"56",
"57",
"49",
"80",
"77",
"76",
"87",
"93",
"98",
"90",
"90",
"110",
"105",
"100",
"98",
"87",
"101",
"78",
"86",
"85",
"73",
"76",
"74",
"54",
"78",
"60",
"60",
"62",
"57",
"63",
"66",
"73",
"70",
"70",
"91",
"69",
"70",
"96",
"90",
"118",
"125",
"121",
"122",
"96",
"121",
"107",
"85",
"84",
"86",
"83",
"84",
"95",
"78",
"75",
"82",
"76",
"76",
"69",
"87",
"88",
"45",
"82",
"52",
"78",
"68",
"73",
"70",
"73",
"70",
"59",
"75",
"83",
"75",
"63",
"74",
"64",
"52",
"88",
"83",
"71",
"88",
"88",
"95",
"99",
"99",
"83",
"85",
"80",
"76",
"77",
"74",
"72",
"75",
"78",
"70",
"70",
"71",
"77",
"76",
"56",
"75",
"78",
"64",
"68",
"73",
"74",
"64",
"87",
"61",
"66",
"58",
"53",
"68",
"93",
"66",
"72",
"62",
"63",
"68",
"75",
"73",
"100",
"81",
"62",
"66",
"65",
"59",
"86",
"77",
"70",
"85",
"77",
"81",
"77",
"72",
"97",
"68",
"85",
"84",
"72",
"81",
"74",
"86",
"76",
"107",
"91",
"99",
"106",
"111",
"120",
"93",
"126",
"127",
"147",
"160",
"171",
"221",
"340",
"482",
"755",
"1281",
"2176",
"3320",
"5042",
"7319",
"10298",
"13272",
"16923",
"19610",
"22521",
"23249",
"24822",
"22929",
"21714",
"18540",
"16210",
"12507",
"9639",
"6792",
"4824",
"3030",
"2001",
"1154",
"728",
"416",
"233",
"145",
"138",
"108",
"86",
"101",
"95",
"106",
"103",
"81",
"98",
"98",
"93",
"73",
"94",
"77",
"88",
"77",
"77",
"82",
"94",
"82",
"82",
"103",
"103",
"103",
"90",
"70",
"89",
"98",
"109",
"108",
"113",
"118",
"114",
"136",
"148",
"198",
"247",
"328",
"468",
"649",
"899",
"1281",
"1611",
"1959",
"2536",
"2815",
"3277",
"3583",
"3621",
"3465",
"3385",
"2889",
"2626",
"2185",
"1843",
"1442",
"1101",
"775",
"638",
"415",
"344",
"266",
"184",
"130",
"115",
"95",
"87",
"76",
"60",
"38",
"53",
"53",
"50",
"47",
"41",
"52",
"52",
"47",
"57",
"46",
"42",
"58",
"48",
"48",
"53",
"36",
"59",
"51",
"57",
"45",
"48",
"45",
"48",
"56",
"56",
"52",
"53",
"34",
"35",
"57",
"48",
"56",
"59",
"40",
"44",
"36",
"49",
"47",
"54",
"39",
"45",
"36",
"54",
"36",
"49",
"46",
"49",
"69",
"46",
"45",
"54",
"50",
"46",
"40",
"58",
"37",
"39",
"46",
"47",
"45",
"47",
"36",
"45",
"40",
"36",
"47",
"50",
"48",
"45",
"48",
"57",
"37",
"50",
"56",
"36",
"47",
"49",
"56",
"52",
"33",
"49",
"41",
"61",
"37",
"44",
"39",
"49",
"40",
"51",
"26",
"40",
"34",
"39",
"44",
"53",
"46",
"59",
"41",
"38",
"30",
"47",
"50",
"44",
"29",
"35",
"28",
"35",
"46",
"36",
"33",
"41",
"42",
"33",
"28",
"39",
"38",
"40",
"39",
"40",
"37",
"37",
"51",
"39",
"34",
"37",
"45",
"47",
"51",
"30",
"30",
"37",
"38",
"38",
"36",
"34",
"38",
"40",
"26",
"39",
"51",
"42",
"41",
"42",
"38",
"34",
"38",
"44",
"33",
"37",
"35",
"39",
"33",
"44",
"33",
"50",
"44",
"50",
"45",
"38",
"37",
"44",
"29",
"34",
"32",
"28",
"37",
"30",
"34",
"46",
"39",
"48",
"28",
"32",
"38",
"41",
"34",
"30",
"37",
"44",
"33",
"42",
"34",
"46",
"21",
"44",
"33",
"33",
"33",
"47",
"34",
"36",
"34",
"34",
"34",
"41",
"35",
"48",
"30",
"28",
"36",
"38",
"36",
"33",
"58",
"29",
"35",
"39",
"36",
"39",
"30",
"46",
"36",
"32",
"38",
"40",
"36",
"27",
"42",
"37",
"28",
"37",
"30",
"38",
"39",
"33",
"34",
"34",
"30",
"38",
"35",
"39",
"28",
"33",
"33",
"33",
"51",
"30",
"29",
"32",
"46",
"37",
"29",
"42",
"36",
"33",
"36",
"32",
"29",
"41",
"45",
"35",
"28",
"51",
"41",
"52",
"35",
"34",
"49",
"45",
"37",
"41",
"44",
"34",
"45",
"56",
"39",
"33",
"47",
"44",
"32",
"47",
"41",
"51",
"33",
"59",
"32",
"46",
"56",
"66",
"59",
"40",
"66",
"58",
"49",
"65",
"64",
"66",
"74",
"60",
"73",
"80",
"73",
"93",
"90",
"103",
"103",
"106",
"110",
"142",
"134",
"137",
"184",
"172",
"164",
"188",
"211",
"239",
"245",
"213",
"200",
"244",
"229",
"248",
"251",
"265",
"266",
"235",
"258",
"201",
"212",
"242",
"184",
"184",
"174",
"167",
"150",
"132",
"145",
"150",
"114",
"119",
"94",
"91",
"69",
"87",
"76",
"77",
"84",
"66",
"61",
"71",
"61",
"58",
"57",
"54",
"66",
"63",
"59",
"70",
"82",
"91",
"97",
"117",
"84",
"122",
"121",
"113",
"124",
"144",
"123",
"127",
"109",
"124",
"88",
"83",
"98",
"66",
"69",
"61",
"48",
"36",
"36",
"49",
"44",
"37",
"30",
"34",
"34",
"19154",
"Channel_info_start",
"Channel : Mg",
"Points : 0",
"Range : 0.000000 - 0.000000",
"Step : 0.010000",
"Channel_info_end",
"Channel_info_start",
"Channel : Al",
"Points : 0",
"Range : 0.000000 - 0.000000",
"Step : 0.010000",
"Channel_info_end",
"Channel_info_start",
"Channel : Si",
"Points : 0",
"Range : 0.000000 - 0.000000",
"Step : 0.010000",
"Channel_info_end",
"Channel_info_start",
"Channel : P ",
"Points : 0",
"Range : 0.000000 - 0.000000",
"Step : 0.010000",
"Channel_info_end",
"Channel_info_start",
"Channel : S ",
"Points : 0",
"Range : 0.000000 - 0.000000",
"Step : 0.010000",
"Channel_info_end",
"Channel_info_start",
"Channel : Cl",
"Points : 0",
"Range : 0.000000 - 0.000000",
"Step : 0.010000",
"Channel_info_end",
"Channel_info_start",
"Channel : K ",
"Points : 0",
"Range : 0.000000 - 0.000000",
"Step : 0.010000",
"Channel_info_end",
"Channel_info_start",
"Channel : Ca",
"Points : 0",
"Range : 0.000000 - 0.000000",
"Step : 0.010000",
"Channel_info_end",
"Channel_info_start",
"Channel : Ti",
"Points : 0",
"Range : 0.000000 - 0.000000",
"Step : 0.010000",
"Channel_info_end",
"Channel_info_start",
"Channel : V ",
"Points : 0",
"Range : 0.000000 - 0.000000",
"Step : 0.010000",
"Channel_info_end",
"Channel_info_start",
"Channel : Cr",
"Points : 0",
"Range : 0.000000 - 0.000000",
"Step : 0.010000",
"Channel_info_end",
"Channel_info_start",
"Channel : Mn",
"Points : 0",
"Range : 0.000000 - 0.000000",
"Step : 0.010000",
"Channel_info_end",
"Channel_info_start",
"Channel : Fe",
"Points : 0",
"Range : 0.000000 - 0.000000",
"Step : 0.010000",
"Channel_info_end",
"Channel_info_start",
"Channel : Cu",
"Points : 0",
"Range : 0.000000 - 0.000000",
"Step : 0.010000",
"Channel_info_end",
"Channel_info_start",
"Channel : Zn",
"Points : 0",
"Range : 0.000000 - 0.000000",
"Step : 0.010000",
"Channel_info_end",
"Channel_info_start",
"Channel : Sr",
"Points : 0",
"Range : 0.000000 - 0.000000",
"Step : 0.010000",
"Channel_info_end",
"Channel_info_start",
"Channel : Pb",
"Points : 0",
"Range : 0.000000 - 0.000000",
"Step : 0.010000",
"Channel_info_end",
"",
"Qualitative Result",
"--------------------------------------------------------------------------------",
"Element :  Ca, Se, P , Rh",
"",
"Peak List",
"--------------------------------------------------------------------------------",
"Channel               Line        keV     Net Int.(cps/uA)",
"--------------------------------------------------------------------------------",
"Na                    CaLa         0.36     0.009",
"                      ----         0.50     0.007",
"                      ----         1.19     0.021",
"                      SeLa         1.40     0.555",
"                      P Ka         2.01     0.022",
"                      CaKa         3.68     0.289",
"                      CaKb         4.01     0.037",
"                      SeKa        11.20    15.681",
"                      SeKb        12.48     2.309",
"                      RhKaC       19.21     0.132",
"                      ----        19.48     0.058",
"                      RhKa        20.05     0.062",
"--------------------------------------------------------------------------------",
"",
"Quantitative Result",
"--------------------------------------------------------------------------------",
"Analyte               Result             Std.Dev. Proc.-Calc. Line Intensity(cps/uA)",
"--------------------------------------------------------------------------------",
"====[No. 1 Layer]====< Layer1               >===============================",
"Layer1                   0.000 ug/cm2    -------- Flux       -------- --------",