File: inputs/edxCalibration/edx_raw/2010/junho/Se 31505.20100611012624.csv
"Sample    : Se 31505",
"Operator  : Luís",
"Comment  : cubatao-g-policarbonato",
"Group     : kerr2007ag180cal_lt",
"Date       : 2010-06-11 01:22:22",
"",
"Mesurement Condition",
"------------------------------------------------------------------------------------",
"Instrument : 700HS2   Atmosphere : Vac.   Collimator : 10(mm)   Spin : No",
"------------------------------------------------------------------------------------",
"Analyte               TG kV   uA      FI Acq.(keV)  Anal.(keV)  Time(sec)     DT(%)",
"------------------------------------------------------------------------------------",
"Na                    Rh 50  237-Auto Al  0 - 20    0.8 - 1.2   Live -  179   15",
"",
"<Profile>",
"Channel_info_start",
"Channel : Na",
"Points : 2048",
"Range : 0.000000 - 20.48",
"Step : 0.010000",
"Channel_info_end",
"0",
"0",
"0",
"0",
"0",
"0",
"0",
"0",
"0",
"0",
"0",
"0",
"0",
"0",
"0",
"10",
"28",
"27",
"37",
"29",
"30",
"17",
"27",
"25",
"30",
"21",
"36",
"27",
"30",
"31",
"27",
"34",
"23",
"18",
"22",
"16",
"18",
"24",
"27",
"28",
"22",
"26",
"26",
"22",
"26",
"14",
"31",
"34",
"29",
"29",
"28",
"23",
"27",
"27",
"24",
"18",
"37",
"31",
"15",
"24",
"23",
"23",
"28",
"28",
"46",
"52",
"50",
"65",
"38",
"71",
"113",
"196",
"318",
"477",
"597",
"616",
"555",
"426",
"323",
"263",
"142",
"112",
"73",
"55",
"52",
"30",
"46",
"33",
"26",
"41",
"38",
"24",
"34",
"28",
"42",
"26",
"31",
"28",
"56",
"56",
"49",
"63",
"62",
"41",
"40",
"23",
"31",
"33",
"26",
"16",
"29",
"20",
"31",
"27",
"27",
"29",
"21",
"30",
"28",
"40",
"24",
"34",
"30",
"35",
"52",
"78",
"95",
"69",
"56",
"65",
"54",
"40",
"29",
"31",
"35",
"37",
"30",
"25",
"29",
"36",
"37",
"47",
"66",
"55",
"60",
"68",
"50",
"53",
"57",
"35",
"40",
"26",
"34",
"26",
"31",
"29",
"31",
"38",
"38",
"34",
"34",
"38",
"29",
"27",
"39",
"36",
"26",
"29",
"26",
"34",
"28",
"34",
"44",
"33",
"43",
"40",
"42",
"61",
"94",
"138",
"217",
"307",
"440",
"533",
"652",
"652",
"610",
"612",
"475",
"461",
"396",
"348",
"278",
"256",
"204",
"161",
"142",
"103",
"131",
"148",
"180",
"136",
"171",
"192",
"184",
"260",
"341",
"495",
"858",
"1510",
"2609",
"3736",
"5292",
"6254",
"7026",
"6572",
"5883",
"4224",
"3041",
"1833",
"1097",
"559",
"330",
"260",
"385",
"650",
"1098",
"1818",
"2568",
"3375",
"4219",
"4430",
"4495",
"4056",
"3480",
"2738",
"2164",
"1615",
"1101",
"813",
"643",
"539",
"575",
"649",
"887",
"1011",
"1153",
"1177",
"1033",
"866",
"674",
"501",
"354",
"208",
"193",
"142",
"122",
"120",
"186",
"255",
"327",
"418",
"501",
"618",
"609",
"563",
"486",
"478",
"308",
"207",
"177",
"178",
"199",
"189",
"266",
"307",
"354",
"334",
"350",
"303",
"282",
"183",
"167",
"148",
"127",
"116",
"107",
"88",
"81",
"78",
"68",
"61",
"64",
"47",
"57",
"55",
"46",
"57",
"62",
"56",
"55",
"56",
"80",
"67",
"93",
"68",
"66",
"77",
"87",
"90",
"79",
"74",
"95",
"80",
"115",
"86",
"97",
"91",
"103",
"100",
"95",
"97",
"95",
"97",
"97",
"99",
"103",
"71",
"100",
"116",
"102",
"112",
"108",
"94",
"107",
"102",
"119",
"120",
"138",
"132",
"115",
"120",
"135",
"138",
"117",
"105",
"119",
"125",
"116",
"106",
"110",
"117",
"104",
"82",
"93",
"99",
"87",
"79",
"88",
"78",
"79",
"94",
"102",
"84",
"98",
"88",
"102",
"64",
"111",
"107",
"106",
"82",
"91",
"89",
"118",
"97",
"103",
"111",
"89",
"104",
"112",
"82",
"106",
"90",
"86",
"94",
"113",
"92",
"99",
"78",
"118",
"111",
"85",
"103",
"105",
"108",
"127",
"107",
"115",
"106",
"127",
"140",
"128",
"118",
"139",
"122",
"126",
"115",
"99",
"107",
"107",
"90",
"108",
"116",
"124",
"107",
"98",
"93",
"92",
"110",
"108",
"112",
"106",
"122",
"103",
"137",
"129",
"144",
"155",
"167",
"164",
"158",
"164",
"155",
"145",
"135",
"127",
"136",
"145",
"106",
"142",
"108",
"137",
"105",
"126",
"115",
"128",
"99",
"107",
"108",
"116",
"110",
"105",
"115",
"113",
"112",
"108",
"92",
"89",
"102",
"110",
"112",
"125",
"98",
"115",
"123",
"101",
"93",
"86",
"115",
"104",
"103",
"111",
"116",
"100",
"119",
"94",
"100",
"112",
"97",
"94",
"119",
"99",
"103",
"105",
"98",
"102",
"104",
"86",
"94",
"107",
"102",
"117",
"90",
"111",
"107",
"95",
"102",
"94",
"87",
"107",
"118",
"107",
"108",
"86",
"98",
"119",
"98",
"126",
"94",
"95",
"101",
"115",
"94",
"101",
"101",
"97",
"91",
"91",
"88",
"102",
"118",
"93",
"120",
"108",
"113",
"88",
"110",
"103",
"101",
"106",
"98",
"92",
"99",
"113",
"104",
"84",
"113",
"110",
"89",
"122",
"114",
"110",
"120",
"86",
"129",
"123",
"116",
"107",
"104",
"99",
"101",
"114",
"114",
"75",
"112",
"113",
"80",
"110",
"120",
"125",
"103",
"113",
"92",
"113",
"119",
"112",
"114",
"104",
"119",
"86",
"126",
"122",
"132",
"140",
"130",
"114",
"128",
"140",
"174",
"200",
"281",
"337",
"606",
"927",
"1429",
"2145",
"2959",
"4218",
"5290",
"7100",
"8363",
"10047",
"10777",
"11467",
"11217",
"11048",
"9861",
"9076",
"7272",
"6100",
"4580",
"3486",
"2354",
"1631",
"1002",
"672",
"447",
"280",
"166",
"153",
"141",
"106",
"112",
"90",
"93",
"114",
"124",
"93",
"99",
"82",
"108",
"130",
"105",
"103",
"100",
"95",
"103",
"105",
"102",
"108",
"90",
"93",
"97",
"99",
"99",
"101",
"100",
"126",
"88",
"107",
"106",
"93",
"103",
"129",
"101",
"122",
"110",
"107",
"124",
"120",
"165",
"182",
"238",
"371",
"457",
"649",
"737",
"924",
"1167",
"1428",
"1479",
"1678",
"1716",
"1695",
"1712",
"1664",
"1432",
"1274",
"1052",
"985",
"739",
"617",
"444",
"386",
"327",
"257",
"230",
"195",
"151",
"118",
"112",
"103",
"88",
"87",
"99",
"75",
"61",
"81",
"85",
"68",
"65",
"85",
"80",
"93",
"76",
"75",
"82",
"55",
"67",
"64",
"60",
"60",
"78",
"85",
"66",
"80",
"61",
"72",
"56",
"53",
"72",
"90",
"71",
"73",
"63",
"79",
"71",
"72",
"64",
"72",
"63",
"72",
"74",
"68",
"59",
"64",
"68",
"71",
"77",
"79",
"75",
"78",
"76",
"79",
"65",
"65",
"77",
"80",
"67",
"67",
"73",
"67",
"77",
"81",
"72",
"66",
"68",
"63",
"50",
"76",
"65",
"66",
"66",
"65",
"87",
"65",
"54",
"79",
"67",
"67",
"71",
"71",
"72",
"79",
"69",
"61",
"71",
"91",
"64",
"65",
"53",
"64",
"64",
"52",
"62",
"57",
"54",
"67",
"63",
"57",
"60",
"60",
"60",
"66",
"62",
"68",
"60",
"60",
"57",
"62",
"60",
"57",
"60",
"64",
"57",
"51",
"57",
"57",
"76",
"71",
"57",
"62",
"62",
"77",
"79",
"57",
"80",
"67",
"61",
"44",
"60",
"73",
"72",
"75",
"66",
"60",
"49",
"57",
"59",
"54",
"60",
"56",
"65",
"57",
"50",
"61",
"52",
"54",
"64",
"57",
"55",
"76",
"55",
"57",
"60",
"52",
"62",
"64",
"64",
"62",
"50",
"42",
"64",
"66",
"63",
"51",
"61",
"61",
"44",
"56",
"68",
"68",
"66",
"46",
"62",
"54",
"48",
"66",
"57",
"69",
"64",
"38",
"56",
"66",
"46",
"68",
"57",
"62",
"47",
"52",
"64",
"54",
"66",
"64",
"56",
"78",
"54",
"55",
"52",
"59",
"76",
"51",
"51",
"75",
"72",
"78",
"60",
"80",
"66",
"65",
"46",
"50",
"63",
"71",
"55",
"67",
"49",
"54",
"52",
"55",
"54",
"48",
"59",
"75",
"74",
"54",
"64",
"73",
"66",
"72",
"64",
"55",
"54",
"80",
"69",
"95",
"74",
"73",
"71",
"80",
"75",
"71",
"79",
"89",
"84",
"86",
"81",
"113",
"68",
"84",
"86",
"112",
"78",
"113",
"119",
"124",
"111",
"140",
"163",
"151",
"171",
"180",
"175",
"235",
"225",
"223",
"234",
"270",
"266",
"320",
"269",
"340",
"348",
"367",
"308",
"376",
"382",
"370",
"382",
"398",
"365",
"385",
"333",
"375",
"306",
"316",
"298",
"283",
"255",
"244",
"234",
"222",
"195",
"186",
"174",
"181",
"151",
"146",
"128",
"132",
"119",
"104",
"110",
"97",
"88",
"89",
"79",
"91",
"93",
"110",
"102",
"107",
"118",
"126",
"117",
"165",
"164",
"202",
"203",
"188",
"209",
"233",
"223",
"254",
"231",
"258",
"216",
"212",
"169",
"177",
"141",
"129",
"110",
"108",
"75",
"62",
"80",
"73",
"57",
"54",
"52",
"41",
"44",
"37686",
"Channel_info_start",
"Channel : Mg",
"Points : 0",
"Range : 0.000000 - 0.000000",
"Step : 0.010000",
"Channel_info_end",
"Channel_info_start",
"Channel : Al",
"Points : 0",
"Range : 0.000000 - 0.000000",
"Step : 0.010000",
"Channel_info_end",
"Channel_info_start",
"Channel : Si",
"Points : 0",
"Range : 0.000000 - 0.000000",
"Step : 0.010000",
"Channel_info_end",
"Channel_info_start",
"Channel : P ",
"Points : 0",
"Range : 0.000000 - 0.000000",
"Step : 0.010000",
"Channel_info_end",
"Channel_info_start",
"Channel : S ",
"Points : 0",
"Range : 0.000000 - 0.000000",
"Step : 0.010000",
"Channel_info_end",
"Channel_info_start",
"Channel : Cl",
"Points : 0",
"Range : 0.000000 - 0.000000",
"Step : 0.010000",
"Channel_info_end",
"Channel_info_start",
"Channel : K ",
"Points : 0",
"Range : 0.000000 - 0.000000",
"Step : 0.010000",
"Channel_info_end",
"Channel_info_start",
"Channel : Ca",
"Points : 0",
"Range : 0.000000 - 0.000000",
"Step : 0.010000",
"Channel_info_end",
"Channel_info_start",
"Channel : Ti",
"Points : 0",
"Range : 0.000000 - 0.000000",
"Step : 0.010000",
"Channel_info_end",
"Channel_info_start",
"Channel : V ",
"Points : 0",
"Range : 0.000000 - 0.000000",
"Step : 0.010000",
"Channel_info_end",
"Channel_info_start",
"Channel : Cr",
"Points : 0",
"Range : 0.000000 - 0.000000",
"Step : 0.010000",
"Channel_info_end",
"Channel_info_start",
"Channel : Mn",
"Points : 0",
"Range : 0.000000 - 0.000000",
"Step : 0.010000",
"Channel_info_end",
"Channel_info_start",
"Channel : Fe",
"Points : 0",
"Range : 0.000000 - 0.000000",
"Step : 0.010000",
"Channel_info_end",
"Channel_info_start",
"Channel : Cu",
"Points : 0",
"Range : 0.000000 - 0.000000",
"Step : 0.010000",
"Channel_info_end",
"Channel_info_start",
"Channel : Zn",
"Points : 0",
"Range : 0.000000 - 0.000000",
"Step : 0.010000",
"Channel_info_end",
"Channel_info_start",
"Channel : Sr",
"Points : 0",
"Range : 0.000000 - 0.000000",
"Step : 0.010000",
"Channel_info_end",
"Channel_info_start",
"Channel : Pb",
"Points : 0",
"Range : 0.000000 - 0.000000",
"Step : 0.010000",
"Channel_info_end",
"",
"Qualitative Result",
"--------------------------------------------------------------------------------",
"Element :  Br, Cs, Ce, Rh",
"",
"Peak List",
"--------------------------------------------------------------------------------",
"Channel               Line        keV     Net Int.(cps/uA)",
"--------------------------------------------------------------------------------",
"Na                    BrLa         1.50     0.160",
"                      CsLaESC      2.52     0.019",
"                      ----         3.70     0.187",
"                      CsLa         4.28     2.360",
"                      CsLb1        4.63     1.519",
"                      CsLb2        4.94     0.347",
"                      CsLg1        5.26     0.142",
"                      CeLb1        5.26     0.040",
"                      CsLg2        5.54     0.089",
"                      BrKa        11.88     5.244",
"                      BrKb        13.26     0.810",
"                      RhKaC       19.16     0.138",
"                      ----        19.40     0.076",
"                      RhKa        20.08     0.094",
"--------------------------------------------------------------------------------",
"",
"Quantitative Result",
"--------------------------------------------------------------------------------",
"Analyte               Result             Std.Dev. Proc.-Calc. Line Intensity(cps/uA)",
"--------------------------------------------------------------------------------",
"====[No. 1 Layer]====< Layer1               >===============================",
"Layer1                   0.000 ug/cm2    -------- Flux       -------- --------",