File: inputs/edxCalibration/edx_raw/2010/junho/Sg 15767.20100611031957.csv
"Sample    : Sg 15767",
"Operator  : Luís",
"Comment  : cubatao-g-policarbonato",
"Group     : kerr2007ag180cal_lt",
"Date       : 2010-06-11 03:15:44",
"",
"Mesurement Condition",
"------------------------------------------------------------------------------------",
"Instrument : 700HS2   Atmosphere : Vac.   Collimator : 10(mm)   Spin : No",
"------------------------------------------------------------------------------------",
"Analyte               TG kV   uA      FI Acq.(keV)  Anal.(keV)  Time(sec)     DT(%)",
"------------------------------------------------------------------------------------",
"Na                    Rh 50  393-Auto Al  0 - 20    0.8 - 1.2   Live -  180   15",
"",
"<Profile>",
"Channel_info_start",
"Channel : Na",
"Points : 2048",
"Range : 0.000000 - 20.48",
"Step : 0.010000",
"Channel_info_end",
"0",
"0",
"0",
"0",
"0",
"0",
"0",
"0",
"0",
"0",
"0",
"0",
"0",
"0",
"0",
"28",
"59",
"45",
"47",
"52",
"47",
"54",
"38",
"41",
"44",
"40",
"48",
"37",
"41",
"40",
"51",
"46",
"36",
"37",
"40",
"33",
"31",
"43",
"38",
"40",
"44",
"40",
"33",
"43",
"44",
"45",
"34",
"35",
"37",
"33",
"43",
"36",
"44",
"48",
"41",
"37",
"45",
"44",
"33",
"50",
"64",
"28",
"54",
"55",
"48",
"34",
"57",
"43",
"51",
"46",
"50",
"52",
"58",
"56",
"76",
"49",
"41",
"64",
"61",
"54",
"51",
"52",
"67",
"48",
"78",
"73",
"59",
"85",
"87",
"90",
"127",
"190",
"194",
"202",
"203",
"175",
"151",
"129",
"121",
"124",
"143",
"144",
"128",
"178",
"144",
"157",
"142",
"136",
"120",
"94",
"92",
"86",
"86",
"72",
"51",
"56",
"79",
"79",
"63",
"68",
"60",
"63",
"43",
"63",
"63",
"46",
"59",
"61",
"63",
"59",
"58",
"62",
"66",
"69",
"67",
"68",
"66",
"80",
"64",
"63",
"75",
"66",
"90",
"73",
"90",
"80",
"86",
"99",
"93",
"96",
"98",
"98",
"115",
"145",
"177",
"225",
"333",
"437",
"550",
"651",
"678",
"656",
"531",
"427",
"299",
"236",
"260",
"241",
"297",
"330",
"403",
"474",
"615",
"864",
"1397",
"2496",
"4376",
"6858",
"9920",
"12514",
"13996",
"13265",
"11659",
"8920",
"6328",
"4157",
"2895",
"2590",
"3115",
"4197",
"5979",
"7395",
"8483",
"8647",
"8386",
"7330",
"6059",
"4370",
"3483",
"2616",
"2045",
"1719",
"1615",
"1791",
"1967",
"1862",
"1888",
"1513",
"1276",
"878",
"641",
"450",
"423",
"430",
"646",
"811",
"846",
"1002",
"971",
"860",
"734",
"544",
"418",
"281",
"287",
"357",
"435",
"462",
"664",
"664",
"705",
"662",
"559",
"421",
"336",
"228",
"168",
"126",
"104",
"84",
"82",
"74",
"58",
"55",
"70",
"64",
"59",
"62",
"59",
"57",
"72",
"61",
"66",
"91",
"75",
"68",
"78",
"75",
"82",
"83",
"79",
"78",
"103",
"95",
"84",
"73",
"88",
"70",
"85",
"70",
"84",
"86",
"71",
"71",
"79",
"70",
"71",
"78",
"74",
"83",
"74",
"86",
"78",
"88",
"91",
"92",
"85",
"107",
"131",
"120",
"124",
"111",
"124",
"131",
"136",
"139",
"142",
"134",
"139",
"142",
"161",
"162",
"167",
"147",
"146",
"132",
"140",
"153",
"129",
"174",
"166",
"162",
"151",
"149",
"146",
"169",
"168",
"156",
"170",
"150",
"186",
"165",
"156",
"131",
"119",
"122",
"138",
"119",
"129",
"123",
"124",
"122",
"159",
"120",
"146",
"147",
"154",
"124",
"127",
"127",
"167",
"124",
"146",
"132",
"144",
"157",
"151",
"128",
"150",
"165",
"192",
"159",
"188",
"154",
"166",
"163",
"185",
"174",
"188",
"159",
"159",
"183",
"186",
"180",
"183",
"171",
"190",
"152",
"188",
"190",
"178",
"165",
"183",
"180",
"159",
"195",
"214",
"175",
"199",
"181",
"195",
"198",
"211",
"201",
"221",
"234",
"216",
"224",
"235",
"238",
"224",
"206",
"228",
"224",
"210",
"202",
"210",
"228",
"234",
"240",
"238",
"212",
"221",
"229",
"207",
"195",
"217",
"173",
"166",
"179",
"156",
"150",
"182",
"158",
"177",
"163",
"156",
"161",
"152",
"162",
"139",
"165",
"183",
"182",
"187",
"164",
"195",
"206",
"215",
"211",
"231",
"217",
"239",
"234",
"191",
"234",
"213",
"163",
"163",
"162",
"189",
"193",
"167",
"201",
"173",
"181",
"177",
"166",
"192",
"173",
"193",
"187",
"183",
"188",
"173",
"164",
"206",
"201",
"193",
"231",
"193",
"203",
"191",
"205",
"175",
"189",
"183",
"197",
"191",
"188",
"185",
"200",
"161",
"189",
"175",
"183",
"167",
"182",
"169",
"162",
"164",
"195",
"164",
"155",
"164",
"155",
"162",
"158",
"152",
"138",
"180",
"136",
"151",
"161",
"166",
"159",
"156",
"142",
"159",
"141",
"164",
"153",
"189",
"158",
"159",
"167",
"158",
"155",
"152",
"177",
"156",
"167",
"155",
"139",
"156",
"147",
"187",
"155",
"158",
"150",
"146",
"149",
"175",
"159",
"167",
"157",
"173",
"162",
"155",
"144",
"158",
"177",
"164",
"167",
"175",
"178",
"176",
"179",
"174",
"176",
"156",
"180",
"152",
"141",
"161",
"200",
"153",
"168",
"175",
"181",
"155",
"162",
"161",
"155",
"179",
"156",
"143",
"141",
"151",
"138",
"165",
"161",
"144",
"162",
"131",
"131",
"142",
"130",
"134",
"138",
"146",
"161",
"178",
"165",
"150",
"153",
"176",
"146",
"162",
"133",
"154",
"144",
"147",
"126",
"146",
"167",
"159",
"149",
"175",
"145",
"144",
"155",
"151",
"163",
"147",
"157",
"138",
"143",
"165",
"122",
"131",
"132",
"143",
"128",
"157",
"136",
"169",
"161",
"158",
"144",
"157",
"124",
"135",
"149",
"141",
"155",
"130",
"127",
"128",
"152",
"145",
"131",
"141",
"143",
"151",
"133",
"122",
"155",
"138",
"131",
"138",
"128",
"140",
"132",
"127",
"143",
"133",
"141",
"134",
"136",
"132",
"126",
"134",
"153",
"144",
"126",
"139",
"144",
"122",
"130",
"133",
"132",
"143",
"138",
"139",
"151",
"129",
"131",
"151",
"151",
"141",
"121",
"132",
"147",
"140",
"131",
"140",
"131",
"133",
"136",
"138",
"135",
"141",
"124",
"139",
"119",
"120",
"133",
"126",
"134",
"130",
"128",
"139",
"136",
"128",
"128",
"127",
"133",
"132",
"121",
"122",
"131",
"129",
"115",
"123",
"132",
"139",
"121",
"106",
"134",
"151",
"117",
"121",
"123",
"131",
"126",
"129",
"110",
"104",
"127",
"120",
"131",
"143",
"112",
"124",
"111",
"124",
"105",
"120",
"123",
"107",
"90",
"107",
"94",
"111",
"110",
"116",
"130",
"123",
"124",
"97",
"117",
"138",
"109",
"110",
"103",
"136",
"115",
"106",
"111",
"109",
"111",
"103",
"106",
"92",
"108",
"119",
"114",
"116",
"112",
"114",
"114",
"114",
"117",
"117",
"107",
"114",
"114",
"138",
"107",
"85",
"121",
"92",
"112",
"123",
"96",
"128",
"126",
"118",
"119",
"106",
"116",
"103",
"126",
"97",
"118",
"99",
"96",
"129",
"95",
"108",
"122",
"97",
"103",
"90",
"87",
"98",
"100",
"112",
"98",
"102",
"87",
"88",
"96",
"118",
"92",
"112",
"87",
"84",
"97",
"123",
"91",
"100",
"99",
"97",
"100",
"120",
"78",
"111",
"85",
"98",
"100",
"97",
"86",
"95",
"95",
"126",
"87",
"107",
"100",
"107",
"102",
"82",
"87",
"107",
"90",
"100",
"99",
"94",
"93",
"99",
"99",
"96",
"106",
"106",
"100",
"104",
"79",
"85",
"122",
"111",
"82",
"107",
"97",
"94",
"106",
"97",
"119",
"84",
"110",
"106",
"90",
"96",
"98",
"94",
"86",
"87",
"94",
"99",
"88",
"95",
"76",
"107",
"97",
"102",
"99",
"85",
"88",
"106",
"96",
"74",
"82",
"82",
"81",
"94",
"115",
"93",
"106",
"90",
"79",
"98",
"96",
"99",
"92",
"93",
"95",
"106",
"102",
"88",
"91",
"86",
"104",
"93",
"85",
"87",
"88",
"119",
"81",
"85",
"105",
"93",
"102",
"81",
"108",
"98",
"103",
"95",
"104",
"100",
"114",
"100",
"110",
"92",
"123",
"111",
"104",
"104",
"124",
"118",
"119",
"123",
"130",
"111",
"98",
"140",
"139",
"143",
"144",
"146",
"146",
"140",
"145",
"162",
"171",
"193",
"163",
"177",
"179",
"239",
"225",
"234",
"287",
"277",
"324",
"342",
"343",
"366",
"411",
"404",
"442",
"477",
"530",
"547",
"508",
"587",
"549",
"608",
"550",
"630",
"561",
"609",
"574",
"541",
"586",
"551",
"539",
"510",
"455",
"473",
"429",
"427",
"351",
"366",
"349",
"301",
"290",
"280",
"246",
"218",
"211",
"200",
"176",
"194",
"164",
"138",
"147",
"146",
"110",
"144",
"150",
"154",
"146",
"192",
"187",
"209",
"207",
"231",
"276",
"278",
"329",
"349",
"382",
"383",
"358",
"394",
"369",
"370",
"363",
"359",
"277",
"282",
"238",
"225",
"186",
"163",
"143",
"126",
"102",
"94",
"93",
"103",
"67",
"93",
"85",
"126776",
"Channel_info_start",
"Channel : Mg",
"Points : 0",
"Range : 0.000000 - 0.000000",
"Step : 0.010000",
"Channel_info_end",
"Channel_info_start",
"Channel : Al",
"Points : 0",
"Range : 0.000000 - 0.000000",
"Step : 0.010000",
"Channel_info_end",
"Channel_info_start",
"Channel : Si",
"Points : 0",
"Range : 0.000000 - 0.000000",
"Step : 0.010000",
"Channel_info_end",
"Channel_info_start",
"Channel : P ",
"Points : 0",
"Range : 0.000000 - 0.000000",
"Step : 0.010000",
"Channel_info_end",
"Channel_info_start",
"Channel : S ",
"Points : 0",
"Range : 0.000000 - 0.000000",
"Step : 0.010000",
"Channel_info_end",
"Channel_info_start",
"Channel : Cl",
"Points : 0",
"Range : 0.000000 - 0.000000",
"Step : 0.010000",
"Channel_info_end",
"Channel_info_start",
"Channel : K ",
"Points : 0",
"Range : 0.000000 - 0.000000",
"Step : 0.010000",
"Channel_info_end",
"Channel_info_start",
"Channel : Ca",
"Points : 0",
"Range : 0.000000 - 0.000000",
"Step : 0.010000",
"Channel_info_end",
"Channel_info_start",
"Channel : Ti",
"Points : 0",
"Range : 0.000000 - 0.000000",
"Step : 0.010000",
"Channel_info_end",
"Channel_info_start",
"Channel : V ",
"Points : 0",
"Range : 0.000000 - 0.000000",
"Step : 0.010000",
"Channel_info_end",
"Channel_info_start",
"Channel : Cr",
"Points : 0",
"Range : 0.000000 - 0.000000",
"Step : 0.010000",
"Channel_info_end",
"Channel_info_start",
"Channel : Mn",
"Points : 0",
"Range : 0.000000 - 0.000000",
"Step : 0.010000",
"Channel_info_end",
"Channel_info_start",
"Channel : Fe",
"Points : 0",
"Range : 0.000000 - 0.000000",
"Step : 0.010000",
"Channel_info_end",
"Channel_info_start",
"Channel : Cu",
"Points : 0",
"Range : 0.000000 - 0.000000",
"Step : 0.010000",
"Channel_info_end",
"Channel_info_start",
"Channel : Zn",
"Points : 0",
"Range : 0.000000 - 0.000000",
"Step : 0.010000",
"Channel_info_end",
"Channel_info_start",
"Channel : Sr",
"Points : 0",
"Range : 0.000000 - 0.000000",
"Step : 0.010000",
"Channel_info_end",
"Channel_info_start",
"Channel : Pb",
"Points : 0",
"Range : 0.000000 - 0.000000",
"Step : 0.010000",
"Channel_info_end",
"",
"Qualitative Result",
"--------------------------------------------------------------------------------",
"Element :  Sb, Ru",
"",
"Peak List",
"--------------------------------------------------------------------------------",
"Channel               Line        keV     Net Int.(cps/uA)",
"--------------------------------------------------------------------------------",
"Na                    SbLaESC      1.85     0.026",
"                      ----         2.10     0.017",
"                      SbLL         3.20     0.093",
"                      SbLa         3.60     2.661",
"                      SbLb1        3.86     1.640",
"                      SbLb2        4.12     0.275",
"                      SbLg1        4.34     0.123",
"                      SbLg2        4.60     0.106",
"                      RuKa        19.16     0.140",
"--------------------------------------------------------------------------------",
"",
"Quantitative Result",
"--------------------------------------------------------------------------------",
"Analyte               Result             Std.Dev. Proc.-Calc. Line Intensity(cps/uA)",
"--------------------------------------------------------------------------------",
"====[No. 1 Layer]====< Layer1               >===============================",
"Layer1                   0.000 ug/cm2    -------- Flux       -------- --------",