File: inputs/edxCalibration/edx_raw/2010/junho/SiO 15752.20100525201952.csv
"Sample    : SiO 15752",
"Operator  : thiago",
"Comment  : cubatao-g-policarbonato",
"Group     : kerr2007ag180cal_lt",
"Date       : 2010-05-25 20:15:41",
"",
"Mesurement Condition",
"------------------------------------------------------------------------------------",
"Instrument : 700HS2   Atmosphere : Vac.   Collimator : 10(mm)   Spin : No",
"------------------------------------------------------------------------------------",
"Analyte               TG kV   uA      FI Acq.(keV)  Anal.(keV)  Time(sec)     DT(%)",
"------------------------------------------------------------------------------------",
"Na                    Rh 50  970-Auto Al  0 - 20    0.8 - 1.2   Live -  180   15",
"",
"<Profile>",
"Channel_info_start",
"Channel : Na",
"Points : 2048",
"Range : 0.000000 - 20.48",
"Step : 0.010000",
"Channel_info_end",
"0",
"0",
"0",
"0",
"0",
"0",
"0",
"0",
"0",
"0",
"0",
"0",
"0",
"0",
"1",
"8",
"54",
"52",
"40",
"40",
"47",
"43",
"45",
"51",
"34",
"53",
"53",
"50",
"50",
"57",
"36",
"47",
"32",
"47",
"50",
"53",
"42",
"44",
"52",
"52",
"49",
"45",
"43",
"48",
"34",
"51",
"49",
"42",
"37",
"42",
"45",
"47",
"44",
"41",
"48",
"43",
"52",
"40",
"48",
"42",
"49",
"48",
"48",
"54",
"62",
"57",
"63",
"57",
"56",
"48",
"62",
"66",
"67",
"86",
"91",
"92",
"102",
"103",
"114",
"108",
"166",
"339",
"727",
"1663",
"3106",
"4671",
"6360",
"6520",
"5933",
"4597",
"3124",
"1697",
"918",
"455",
"314",
"179",
"147",
"134",
"144",
"176",
"192",
"173",
"176",
"124",
"93",
"78",
"32",
"44",
"31",
"51",
"42",
"27",
"41",
"34",
"43",
"54",
"50",
"43",
"49",
"39",
"25",
"27",
"35",
"37",
"32",
"34",
"31",
"15",
"37",
"34",
"40",
"39",
"45",
"40",
"60",
"48",
"50",
"37",
"50",
"53",
"53",
"58",
"35",
"51",
"48",
"41",
"30",
"38",
"50",
"43",
"25",
"44",
"29",
"32",
"27",
"35",
"25",
"34",
"36",
"44",
"54",
"57",
"60",
"47",
"60",
"50",
"76",
"71",
"51",
"40",
"56",
"50",
"56",
"65",
"75",
"63",
"132",
"192",
"308",
"488",
"753",
"1053",
"1594",
"1909",
"2197",
"2112",
"1901",
"1528",
"1075",
"709",
"433",
"294",
"214",
"173",
"168",
"196",
"209",
"259",
"305",
"343",
"334",
"330",
"314",
"287",
"244",
"169",
"149",
"116",
"100",
"93",
"88",
"91",
"86",
"93",
"106",
"100",
"118",
"102",
"110",
"149",
"130",
"132",
"168",
"166",
"163",
"148",
"197",
"181",
"171",
"167",
"200",
"199",
"182",
"173",
"148",
"123",
"178",
"162",
"160",
"154",
"160",
"149",
"122",
"128",
"154",
"143",
"161",
"144",
"155",
"123",
"140",
"121",
"123",
"137",
"150",
"148",
"155",
"127",
"124",
"147",
"128",
"124",
"119",
"150",
"130",
"158",
"161",
"171",
"140",
"149",
"153",
"189",
"147",
"170",
"158",
"169",
"141",
"171",
"165",
"144",
"169",
"170",
"168",
"188",
"197",
"193",
"192",
"178",
"212",
"213",
"173",
"210",
"220",
"174",
"207",
"213",
"214",
"218",
"205",
"245",
"236",
"240",
"236",
"226",
"273",
"246",
"266",
"223",
"248",
"250",
"283",
"227",
"251",
"267",
"278",
"297",
"339",
"315",
"316",
"367",
"341",
"347",
"321",
"317",
"302",
"292",
"310",
"317",
"291",
"318",
"310",
"279",
"308",
"313",
"307",
"281",
"337",
"325",
"291",
"314",
"316",
"318",
"339",
"317",
"330",
"296",
"341",
"283",
"331",
"328",
"346",
"347",
"353",
"290",
"386",
"296",
"312",
"304",
"347",
"324",
"319",
"293",
"308",
"296",
"281",
"317",
"321",
"303",
"300",
"301",
"279",
"278",
"333",
"342",
"328",
"302",
"299",
"296",
"320",
"340",
"319",
"311",
"344",
"308",
"351",
"296",
"325",
"302",
"315",
"331",
"314",
"358",
"359",
"358",
"330",
"359",
"389",
"412",
"393",
"384",
"408",
"408",
"409",
"392",
"433",
"371",
"382",
"334",
"352",
"380",
"362",
"313",
"312",
"315",
"327",
"296",
"341",
"312",
"298",
"324",
"325",
"344",
"332",
"317",
"353",
"343",
"416",
"441",
"433",
"461",
"445",
"469",
"488",
"461",
"461",
"425",
"430",
"364",
"339",
"362",
"319",
"312",
"320",
"293",
"316",
"344",
"332",
"331",
"338",
"334",
"353",
"339",
"357",
"302",
"326",
"301",
"300",
"324",
"321",
"296",
"328",
"326",
"318",
"285",
"340",
"313",
"303",
"325",
"280",
"285",
"328",
"297",
"325",
"320",
"306",
"304",
"342",
"312",
"356",
"336",
"364",
"333",
"337",
"330",
"290",
"292",
"346",
"302",
"324",
"298",
"326",
"313",
"311",
"338",
"324",
"302",
"362",
"302",
"316",
"294",
"318",
"315",
"299",
"320",
"316",
"325",
"301",
"315",
"339",
"327",
"366",
"339",
"313",
"310",
"325",
"313",
"320",
"332",
"293",
"325",
"327",
"320",
"324",
"276",
"321",
"305",
"277",
"300",
"331",
"303",
"305",
"324",
"304",
"284",
"296",
"311",
"330",
"314",
"331",
"296",
"320",
"293",
"316",
"325",
"310",
"311",
"297",
"310",
"321",
"331",
"303",
"287",
"299",
"297",
"339",
"316",
"350",
"323",
"308",
"338",
"353",
"331",
"303",
"288",
"336",
"313",
"277",
"313",
"321",
"311",
"338",
"285",
"330",
"316",
"314",
"280",
"281",
"312",
"307",
"293",
"367",
"276",
"303",
"289",
"288",
"303",
"308",
"312",
"310",
"297",
"275",
"288",
"300",
"253",
"297",
"312",
"298",
"272",
"281",
"284",
"311",
"261",
"290",
"268",
"327",
"291",
"278",
"287",
"306",
"291",
"301",
"286",
"267",
"275",
"288",
"274",
"302",
"248",
"276",
"306",
"289",
"265",
"308",
"292",
"306",
"272",
"271",
"296",
"258",
"266",
"293",
"266",
"287",
"281",
"264",
"258",
"303",
"285",
"289",
"279",
"294",
"245",
"264",
"275",
"259",
"272",
"279",
"263",
"251",
"252",
"280",
"250",
"233",
"259",
"251",
"260",
"268",
"252",
"253",
"283",
"259",
"234",
"265",
"302",
"275",
"266",
"285",
"227",
"271",
"254",
"236",
"249",
"265",
"257",
"297",
"248",
"254",
"267",
"296",
"236",
"266",
"251",
"253",
"263",
"246",
"252",
"265",
"242",
"224",
"223",
"226",
"268",
"245",
"261",
"223",
"233",
"233",
"229",
"232",
"239",
"242",
"281",
"252",
"215",
"273",
"212",
"227",
"270",
"253",
"224",
"249",
"255",
"233",
"235",
"248",
"233",
"255",
"212",
"255",
"237",
"228",
"222",
"260",
"220",
"227",
"229",
"224",
"225",
"226",
"196",
"235",
"228",
"224",
"216",
"241",
"231",
"251",
"241",
"231",
"220",
"245",
"229",
"264",
"263",
"234",
"208",
"216",
"236",
"242",
"187",
"197",
"232",
"245",
"225",
"223",
"261",
"208",
"211",
"241",
"255",
"211",
"187",
"232",
"225",
"216",
"238",
"225",
"215",
"283",
"205",
"212",
"238",
"211",
"208",
"185",
"218",
"194",
"174",
"236",
"208",
"181",
"188",
"236",
"218",
"216",
"218",
"195",
"219",
"200",
"219",
"222",
"200",
"220",
"218",
"202",
"196",
"225",
"195",
"239",
"238",
"198",
"216",
"202",
"219",
"211",
"213",
"213",
"209",
"229",
"199",
"214",
"192",
"202",
"194",
"241",
"207",
"234",
"218",
"191",
"192",
"218",
"173",
"203",
"185",
"199",
"172",
"221",
"205",
"203",
"220",
"184",
"208",
"219",
"196",
"206",
"210",
"202",
"197",
"200",
"211",
"218",
"180",
"172",
"193",
"232",
"213",
"196",
"172",
"192",
"214",
"220",
"226",
"214",
"180",
"188",
"182",
"184",
"191",
"231",
"187",
"198",
"201",
"191",
"207",
"201",
"194",
"203",
"186",
"213",
"178",
"202",
"166",
"213",
"201",
"218",
"184",
"206",
"166",
"196",
"186",
"199",
"176",
"198",
"181",
"223",
"167",
"201",
"194",
"196",
"197",
"182",
"191",
"208",
"191",
"199",
"200",
"244",
"191",
"183",
"181",
"189",
"207",
"209",
"209",
"207",
"202",
"236",
"210",
"220",
"222",
"244",
"233",
"249",
"247",
"246",
"229",
"258",
"237",
"263",
"228",
"247",
"250",
"275",
"281",
"276",
"266",
"279",
"298",
"337",
"307",
"324",
"329",
"401",
"365",
"366",
"421",
"438",
"455",
"501",
"516",
"587",
"615",
"615",
"651",
"824",
"820",
"826",
"915",
"983",
"1053",
"1153",
"1154",
"1257",
"1225",
"1332",
"1298",
"1459",
"1356",
"1446",
"1469",
"1541",
"1291",
"1439",
"1335",
"1403",
"1308",
"1270",
"1182",
"1134",
"1019",
"997",
"871",
"902",
"790",
"750",
"686",
"680",
"566",
"567",
"503",
"512",
"439",
"417",
"409",
"393",
"350",
"350",
"305",
"310",
"331",
"327",
"314",
"330",
"312",
"347",
"353",
"410",
"377",
"474",
"464",
"498",
"516",
"549",
"507",
"561",
"543",
"517",
"521",
"521",
"458",
"446",
"392",
"370",
"324",
"251",
"264",
"260",
"227",
"202",
"197",
"179",
"186",
"179",
"180",
"97842",
"Channel_info_start",
"Channel : Mg",
"Points : 0",
"Range : 0.000000 - 0.000000",
"Step : 0.010000",
"Channel_info_end",
"Channel_info_start",
"Channel : Al",
"Points : 0",
"Range : 0.000000 - 0.000000",
"Step : 0.010000",
"Channel_info_end",
"Channel_info_start",
"Channel : Si",
"Points : 0",
"Range : 0.000000 - 0.000000",
"Step : 0.010000",
"Channel_info_end",
"Channel_info_start",
"Channel : P ",
"Points : 0",
"Range : 0.000000 - 0.000000",
"Step : 0.010000",
"Channel_info_end",
"Channel_info_start",
"Channel : S ",
"Points : 0",
"Range : 0.000000 - 0.000000",
"Step : 0.010000",
"Channel_info_end",
"Channel_info_start",
"Channel : Cl",
"Points : 0",
"Range : 0.000000 - 0.000000",
"Step : 0.010000",
"Channel_info_end",
"Channel_info_start",
"Channel : K ",
"Points : 0",
"Range : 0.000000 - 0.000000",
"Step : 0.010000",
"Channel_info_end",
"Channel_info_start",
"Channel : Ca",
"Points : 0",
"Range : 0.000000 - 0.000000",
"Step : 0.010000",
"Channel_info_end",
"Channel_info_start",
"Channel : Ti",
"Points : 0",
"Range : 0.000000 - 0.000000",
"Step : 0.010000",
"Channel_info_end",
"Channel_info_start",
"Channel : V ",
"Points : 0",
"Range : 0.000000 - 0.000000",
"Step : 0.010000",
"Channel_info_end",
"Channel_info_start",
"Channel : Cr",
"Points : 0",
"Range : 0.000000 - 0.000000",
"Step : 0.010000",
"Channel_info_end",
"Channel_info_start",
"Channel : Mn",
"Points : 0",
"Range : 0.000000 - 0.000000",
"Step : 0.010000",
"Channel_info_end",
"Channel_info_start",
"Channel : Fe",
"Points : 0",
"Range : 0.000000 - 0.000000",
"Step : 0.010000",
"Channel_info_end",
"Channel_info_start",
"Channel : Cu",
"Points : 0",
"Range : 0.000000 - 0.000000",
"Step : 0.010000",
"Channel_info_end",
"Channel_info_start",
"Channel : Zn",
"Points : 0",
"Range : 0.000000 - 0.000000",
"Step : 0.010000",
"Channel_info_end",
"Channel_info_start",
"Channel : Sr",
"Points : 0",
"Range : 0.000000 - 0.000000",
"Step : 0.010000",
"Channel_info_end",
"Channel_info_start",
"Channel : Pb",
"Points : 0",
"Range : 0.000000 - 0.000000",
"Step : 0.010000",
"Channel_info_end",
"",
"Qualitative Result",
"--------------------------------------------------------------------------------",
"Element :  Si, P , Ca, Ti, Zn, Ru",
"",
"Peak List",
"--------------------------------------------------------------------------------",
"Channel               Line        keV     Net Int.(cps/uA)",
"--------------------------------------------------------------------------------",
"Na                    SiKa         1.74     0.444",
"                      P Ka         2.00     0.010",
"                      CaKa         3.68     0.170",
"                      CaKb         4.03     0.021",
"                      TiKa         4.45     0.006",
"                      ----         4.63     0.007",
"                      ZnKa         8.68     0.015",
"                      RuKa        19.16     0.132",
"                      ----        19.44     0.066",
"                      ----        20.04     0.041",
"--------------------------------------------------------------------------------",
"",
"Quantitative Result",
"--------------------------------------------------------------------------------",
"Analyte               Result             Std.Dev. Proc.-Calc. Line Intensity(cps/uA)",
"--------------------------------------------------------------------------------",
"====[No. 1 Layer]====< Layer1               >===============================",
"Layer1                   0.000 ug/cm2    -------- Flux       -------- --------",