File: inputs/edxCalibration/edx_raw/2010/junho/SiO 31493.20100525202401.csv
"Sample    : SiO 31493",
"Operator  : thiago",
"Comment  : cubatao-g-policarbonato",
"Group     : kerr2007ag180cal_lt",
"Date       : 2010-05-25 20:19:51",
"",
"Mesurement Condition",
"------------------------------------------------------------------------------------",
"Instrument : 700HS2   Atmosphere : Vac.   Collimator : 10(mm)   Spin : No",
"------------------------------------------------------------------------------------",
"Analyte               TG kV   uA      FI Acq.(keV)  Anal.(keV)  Time(sec)     DT(%)",
"------------------------------------------------------------------------------------",
"Na                    Rh 50  970-Auto Al  0 - 20    0.8 - 1.2   Live -  179   15",
"",
"<Profile>",
"Channel_info_start",
"Channel : Na",
"Points : 2048",
"Range : 0.000000 - 20.48",
"Step : 0.010000",
"Channel_info_end",
"0",
"0",
"0",
"0",
"0",
"0",
"0",
"0",
"0",
"0",
"0",
"0",
"0",
"0",
"1",
"14",
"51",
"44",
"49",
"55",
"55",
"43",
"54",
"55",
"49",
"40",
"62",
"52",
"46",
"50",
"50",
"52",
"53",
"42",
"41",
"34",
"53",
"49",
"42",
"52",
"30",
"43",
"34",
"46",
"34",
"43",
"48",
"43",
"34",
"42",
"40",
"41",
"42",
"30",
"40",
"44",
"51",
"43",
"33",
"44",
"59",
"36",
"37",
"49",
"55",
"39",
"46",
"47",
"43",
"44",
"69",
"76",
"64",
"74",
"87",
"87",
"107",
"93",
"112",
"135",
"185",
"318",
"785",
"1741",
"3326",
"5069",
"6402",
"6830",
"6299",
"4860",
"3330",
"1765",
"978",
"521",
"290",
"215",
"216",
"170",
"227",
"272",
"292",
"315",
"234",
"194",
"146",
"84",
"64",
"49",
"42",
"38",
"38",
"37",
"40",
"35",
"46",
"28",
"24",
"37",
"27",
"25",
"27",
"31",
"28",
"33",
"30",
"40",
"25",
"33",
"21",
"28",
"48",
"31",
"49",
"40",
"62",
"50",
"41",
"47",
"55",
"38",
"57",
"54",
"40",
"50",
"59",
"55",
"57",
"44",
"40",
"43",
"34",
"43",
"49",
"31",
"37",
"44",
"37",
"49",
"57",
"42",
"33",
"41",
"40",
"48",
"65",
"51",
"44",
"55",
"54",
"48",
"51",
"54",
"59",
"57",
"74",
"87",
"130",
"217",
"393",
"647",
"1115",
"1648",
"2426",
"3059",
"3433",
"3529",
"3126",
"2465",
"1652",
"1102",
"692",
"363",
"253",
"203",
"182",
"188",
"225",
"307",
"392",
"450",
"514",
"512",
"472",
"323",
"327",
"234",
"152",
"126",
"98",
"82",
"62",
"73",
"94",
"84",
"87",
"107",
"111",
"124",
"112",
"128",
"139",
"137",
"138",
"158",
"170",
"158",
"176",
"181",
"161",
"170",
"189",
"176",
"179",
"163",
"158",
"149",
"156",
"133",
"171",
"139",
"142",
"149",
"116",
"129",
"136",
"130",
"128",
"135",
"120",
"130",
"131",
"128",
"139",
"118",
"139",
"120",
"146",
"125",
"150",
"138",
"138",
"139",
"120",
"142",
"150",
"149",
"124",
"179",
"124",
"153",
"151",
"164",
"155",
"156",
"168",
"178",
"177",
"163",
"169",
"152",
"156",
"174",
"188",
"174",
"212",
"165",
"177",
"178",
"183",
"175",
"202",
"178",
"206",
"191",
"242",
"223",
"201",
"214",
"228",
"219",
"208",
"199",
"206",
"243",
"245",
"267",
"234",
"221",
"229",
"225",
"286",
"261",
"282",
"252",
"258",
"289",
"296",
"299",
"285",
"321",
"321",
"307",
"308",
"328",
"310",
"298",
"287",
"268",
"272",
"280",
"315",
"289",
"297",
"307",
"310",
"323",
"319",
"312",
"363",
"292",
"327",
"308",
"348",
"312",
"343",
"298",
"351",
"318",
"343",
"305",
"359",
"321",
"330",
"332",
"321",
"283",
"311",
"294",
"335",
"295",
"341",
"306",
"318",
"268",
"333",
"311",
"320",
"287",
"319",
"290",
"302",
"295",
"300",
"289",
"320",
"295",
"342",
"321",
"290",
"310",
"299",
"341",
"327",
"302",
"332",
"302",
"320",
"315",
"325",
"328",
"338",
"359",
"354",
"359",
"426",
"329",
"348",
"417",
"388",
"377",
"407",
"393",
"391",
"379",
"387",
"379",
"360",
"337",
"351",
"340",
"338",
"292",
"348",
"349",
"364",
"342",
"313",
"284",
"348",
"335",
"311",
"333",
"363",
"323",
"335",
"346",
"369",
"436",
"424",
"498",
"504",
"471",
"507",
"443",
"466",
"421",
"401",
"386",
"374",
"341",
"387",
"334",
"321",
"312",
"317",
"332",
"345",
"315",
"360",
"317",
"313",
"335",
"304",
"306",
"316",
"328",
"347",
"291",
"319",
"304",
"283",
"292",
"329",
"331",
"310",
"295",
"332",
"298",
"312",
"291",
"331",
"311",
"308",
"337",
"347",
"323",
"328",
"305",
"328",
"333",
"313",
"306",
"342",
"311",
"325",
"293",
"298",
"306",
"333",
"316",
"327",
"310",
"325",
"320",
"287",
"295",
"353",
"293",
"290",
"285",
"333",
"267",
"320",
"282",
"315",
"283",
"294",
"307",
"322",
"281",
"319",
"305",
"302",
"273",
"327",
"302",
"316",
"282",
"287",
"306",
"318",
"315",
"292",
"282",
"306",
"300",
"298",
"329",
"336",
"299",
"349",
"304",
"292",
"299",
"318",
"290",
"305",
"320",
"311",
"302",
"302",
"294",
"297",
"274",
"327",
"312",
"312",
"308",
"311",
"296",
"355",
"273",
"303",
"278",
"299",
"313",
"303",
"317",
"335",
"313",
"292",
"296",
"304",
"306",
"286",
"255",
"313",
"304",
"320",
"286",
"313",
"306",
"299",
"278",
"300",
"307",
"268",
"325",
"280",
"290",
"323",
"255",
"291",
"281",
"272",
"290",
"289",
"254",
"284",
"276",
"317",
"247",
"269",
"267",
"255",
"285",
"277",
"276",
"317",
"286",
"273",
"273",
"272",
"295",
"259",
"279",
"323",
"254",
"303",
"254",
"267",
"265",
"290",
"271",
"279",
"280",
"278",
"270",
"263",
"226",
"265",
"213",
"286",
"260",
"269",
"280",
"276",
"255",
"268",
"261",
"309",
"264",
"264",
"246",
"287",
"238",
"295",
"258",
"315",
"249",
"261",
"246",
"258",
"232",
"260",
"257",
"290",
"259",
"261",
"291",
"272",
"264",
"253",
"269",
"252",
"249",
"259",
"264",
"267",
"239",
"269",
"261",
"253",
"251",
"249",
"227",
"285",
"245",
"258",
"253",
"270",
"243",
"249",
"233",
"278",
"236",
"248",
"267",
"240",
"225",
"258",
"218",
"246",
"241",
"296",
"239",
"234",
"244",
"261",
"252",
"248",
"216",
"273",
"247",
"267",
"264",
"231",
"231",
"232",
"270",
"240",
"232",
"251",
"241",
"266",
"265",
"252",
"219",
"249",
"240",
"269",
"217",
"247",
"251",
"235",
"212",
"251",
"243",
"226",
"231",
"269",
"222",
"219",
"240",
"225",
"219",
"235",
"223",
"232",
"225",
"236",
"236",
"241",
"242",
"219",
"216",
"230",
"216",
"223",
"212",
"219",
"213",
"241",
"216",
"235",
"221",
"220",
"231",
"231",
"244",
"231",
"226",
"222",
"227",
"207",
"212",
"217",
"208",
"223",
"222",
"201",
"202",
"254",
"206",
"222",
"196",
"243",
"214",
"232",
"229",
"229",
"238",
"230",
"225",
"205",
"219",
"202",
"221",
"206",
"216",
"247",
"231",
"233",
"195",
"205",
"228",
"235",
"212",
"202",
"210",
"193",
"208",
"215",
"180",
"208",
"191",
"205",
"215",
"203",
"204",
"229",
"209",
"225",
"176",
"222",
"191",
"228",
"223",
"193",
"201",
"217",
"196",
"191",
"193",
"210",
"212",
"209",
"182",
"213",
"190",
"169",
"202",
"179",
"181",
"203",
"179",
"223",
"214",
"182",
"196",
"220",
"208",
"191",
"194",
"184",
"210",
"193",
"181",
"203",
"205",
"208",
"197",
"201",
"185",
"166",
"168",
"212",
"196",
"206",
"182",
"218",
"170",
"212",
"201",
"196",
"190",
"201",
"197",
"194",
"195",
"205",
"213",
"188",
"191",
"216",
"169",
"197",
"181",
"207",
"190",
"195",
"180",
"199",
"195",
"199",
"180",
"226",
"182",
"188",
"196",
"249",
"197",
"206",
"151",
"207",
"183",
"229",
"172",
"203",
"181",
"212",
"192",
"202",
"184",
"206",
"201",
"230",
"208",
"197",
"200",
"204",
"187",
"213",
"213",
"200",
"204",
"228",
"214",
"240",
"208",
"228",
"200",
"230",
"214",
"225",
"223",
"221",
"208",
"258",
"243",
"256",
"245",
"253",
"229",
"313",
"299",
"235",
"283",
"271",
"285",
"302",
"316",
"350",
"357",
"380",
"387",
"444",
"447",
"475",
"526",
"587",
"530",
"667",
"674",
"748",
"776",
"817",
"870",
"1038",
"983",
"1073",
"1118",
"1303",
"1221",
"1279",
"1388",
"1425",
"1347",
"1370",
"1410",
"1544",
"1411",
"1379",
"1338",
"1288",
"1241",
"1183",
"1142",
"1092",
"998",
"1012",
"972",
"894",
"801",
"767",
"702",
"635",
"601",
"533",
"520",
"466",
"439",
"381",
"417",
"337",
"362",
"337",
"312",
"304",
"255",
"318",
"302",
"376",
"305",
"343",
"343",
"427",
"397",
"452",
"487",
"495",
"504",
"599",
"528",
"578",
"552",
"549",
"507",
"509",
"432",
"444",
"360",
"333",
"322",
"307",
"238",
"229",
"203",
"196",
"192",
"175",
"169",
"185",
"177",
"95971",
"Channel_info_start",
"Channel : Mg",
"Points : 0",
"Range : 0.000000 - 0.000000",
"Step : 0.010000",
"Channel_info_end",
"Channel_info_start",
"Channel : Al",
"Points : 0",
"Range : 0.000000 - 0.000000",
"Step : 0.010000",
"Channel_info_end",
"Channel_info_start",
"Channel : Si",
"Points : 0",
"Range : 0.000000 - 0.000000",
"Step : 0.010000",
"Channel_info_end",
"Channel_info_start",
"Channel : P ",
"Points : 0",
"Range : 0.000000 - 0.000000",
"Step : 0.010000",
"Channel_info_end",
"Channel_info_start",
"Channel : S ",
"Points : 0",
"Range : 0.000000 - 0.000000",
"Step : 0.010000",
"Channel_info_end",
"Channel_info_start",
"Channel : Cl",
"Points : 0",
"Range : 0.000000 - 0.000000",
"Step : 0.010000",
"Channel_info_end",
"Channel_info_start",
"Channel : K ",
"Points : 0",
"Range : 0.000000 - 0.000000",
"Step : 0.010000",
"Channel_info_end",
"Channel_info_start",
"Channel : Ca",
"Points : 0",
"Range : 0.000000 - 0.000000",
"Step : 0.010000",
"Channel_info_end",
"Channel_info_start",
"Channel : Ti",
"Points : 0",
"Range : 0.000000 - 0.000000",
"Step : 0.010000",
"Channel_info_end",
"Channel_info_start",
"Channel : V ",
"Points : 0",
"Range : 0.000000 - 0.000000",
"Step : 0.010000",
"Channel_info_end",
"Channel_info_start",
"Channel : Cr",
"Points : 0",
"Range : 0.000000 - 0.000000",
"Step : 0.010000",
"Channel_info_end",
"Channel_info_start",
"Channel : Mn",
"Points : 0",
"Range : 0.000000 - 0.000000",
"Step : 0.010000",
"Channel_info_end",
"Channel_info_start",
"Channel : Fe",
"Points : 0",
"Range : 0.000000 - 0.000000",
"Step : 0.010000",
"Channel_info_end",
"Channel_info_start",
"Channel : Cu",
"Points : 0",
"Range : 0.000000 - 0.000000",
"Step : 0.010000",
"Channel_info_end",
"Channel_info_start",
"Channel : Zn",
"Points : 0",
"Range : 0.000000 - 0.000000",
"Step : 0.010000",
"Channel_info_end",
"Channel_info_start",
"Channel : Sr",
"Points : 0",
"Range : 0.000000 - 0.000000",
"Step : 0.010000",
"Channel_info_end",
"Channel_info_start",
"Channel : Pb",
"Points : 0",
"Range : 0.000000 - 0.000000",
"Step : 0.010000",
"Channel_info_end",
"",
"Qualitative Result",
"--------------------------------------------------------------------------------",
"Element :  Si, P , Ca",
"",
"Peak List",
"--------------------------------------------------------------------------------",
"Channel               Line        keV     Net Int.(cps/uA)",
"--------------------------------------------------------------------------------",
"Na                    SiKa         1.74     0.471",
"                      P Ka         2.01     0.018",
"                      CaKa         3.68     0.282",
"                      CaKb         4.01     0.035",
"                      ----         4.64     0.007",
"                      ----         8.60     0.019",
"                      ----        19.12     0.129",
"                      ----        19.43     0.069",
"                      ----        20.04     0.042",
"--------------------------------------------------------------------------------",
"",
"Quantitative Result",
"--------------------------------------------------------------------------------",
"Analyte               Result             Std.Dev. Proc.-Calc. Line Intensity(cps/uA)",
"--------------------------------------------------------------------------------",
"====[No. 1 Layer]====< Layer1               >===============================",
"Layer1                   0.000 ug/cm2    -------- Flux       -------- --------",