File: inputs/edxCalibration/edx_raw/2010/junho/SrF2 15761.20100525231321.csv
"Sample    : SrF2 15761",
"Operator  : luisf",
"Comment  : cubatao-g-policarbonato",
"Group     : kerr2007ag180cal_lt",
"Date       : 2010-05-25 23:09:17",
"",
"Mesurement Condition",
"------------------------------------------------------------------------------------",
"Instrument : 700HS2   Atmosphere : Vac.   Collimator : 10(mm)   Spin : No",
"------------------------------------------------------------------------------------",
"Analyte               TG kV   uA      FI Acq.(keV)  Anal.(keV)  Time(sec)     DT(%)",
"------------------------------------------------------------------------------------",
"Na                    Rh 50  237-Auto Al  0 - 20    0.8 - 1.2   Live -  179   15",
"",
"<Profile>",
"Channel_info_start",
"Channel : Na",
"Points : 2048",
"Range : 0.000000 - 20.48",
"Step : 0.010000",
"Channel_info_end",
"0",
"0",
"0",
"0",
"0",
"0",
"0",
"0",
"0",
"0",
"0",
"0",
"0",
"0",
"0",
"12",
"18",
"34",
"31",
"27",
"31",
"23",
"29",
"25",
"35",
"36",
"51",
"41",
"32",
"32",
"52",
"42",
"34",
"26",
"39",
"36",
"37",
"23",
"43",
"27",
"34",
"32",
"30",
"30",
"27",
"24",
"25",
"29",
"22",
"29",
"24",
"32",
"26",
"23",
"25",
"22",
"17",
"16",
"24",
"17",
"24",
"14",
"18",
"13",
"21",
"13",
"11",
"29",
"25",
"32",
"26",
"27",
"34",
"29",
"26",
"40",
"75",
"90",
"103",
"135",
"133",
"161",
"134",
"143",
"158",
"223",
"384",
"664",
"1084",
"1566",
"1999",
"2095",
"2020",
"1746",
"1426",
"1031",
"799",
"549",
"366",
"317",
"187",
"135",
"103",
"84",
"52",
"45",
"28",
"25",
"31",
"43",
"31",
"36",
"34",
"34",
"26",
"13",
"16",
"16",
"19",
"14",
"14",
"9",
"19",
"11",
"19",
"13",
"10",
"13",
"12",
"17",
"22",
"9",
"11",
"18",
"15",
"14",
"14",
"16",
"9",
"25",
"21",
"19",
"17",
"22",
"13",
"15",
"14",
"17",
"14",
"14",
"14",
"16",
"8",
"11",
"22",
"15",
"11",
"16",
"16",
"14",
"12",
"6",
"23",
"16",
"13",
"9",
"12",
"18",
"11",
"21",
"12",
"12",
"19",
"12",
"23",
"29",
"37",
"47",
"74",
"136",
"184",
"253",
"361",
"497",
"588",
"545",
"498",
"358",
"274",
"152",
"109",
"78",
"57",
"62",
"47",
"44",
"44",
"56",
"74",
"89",
"88",
"90",
"86",
"67",
"71",
"28",
"32",
"27",
"23",
"21",
"24",
"27",
"27",
"24",
"38",
"27",
"30",
"30",
"40",
"44",
"40",
"40",
"57",
"53",
"55",
"54",
"66",
"48",
"51",
"58",
"61",
"43",
"48",
"52",
"30",
"43",
"54",
"37",
"52",
"31",
"36",
"36",
"47",
"39",
"29",
"28",
"31",
"39",
"29",
"31",
"35",
"39",
"42",
"31",
"29",
"23",
"29",
"29",
"34",
"31",
"50",
"44",
"37",
"43",
"42",
"47",
"35",
"48",
"35",
"48",
"39",
"47",
"49",
"45",
"41",
"44",
"54",
"49",
"45",
"53",
"32",
"53",
"57",
"53",
"77",
"77",
"67",
"68",
"62",
"60",
"66",
"70",
"66",
"67",
"74",
"64",
"81",
"87",
"84",
"86",
"71",
"64",
"66",
"58",
"70",
"70",
"64",
"58",
"76",
"75",
"71",
"77",
"71",
"76",
"68",
"79",
"69",
"71",
"90",
"82",
"99",
"92",
"110",
"75",
"88",
"97",
"83",
"83",
"101",
"83",
"103",
"113",
"108",
"82",
"107",
"117",
"120",
"70",
"105",
"93",
"94",
"92",
"101",
"101",
"107",
"64",
"92",
"81",
"89",
"95",
"86",
"110",
"90",
"84",
"77",
"102",
"101",
"87",
"96",
"79",
"100",
"89",
"81",
"95",
"88",
"78",
"102",
"103",
"99",
"83",
"78",
"114",
"90",
"91",
"88",
"69",
"91",
"76",
"97",
"106",
"79",
"109",
"95",
"103",
"99",
"97",
"87",
"103",
"104",
"119",
"112",
"101",
"93",
"101",
"104",
"103",
"115",
"125",
"130",
"142",
"153",
"147",
"186",
"223",
"236",
"233",
"261",
"231",
"243",
"202",
"173",
"178",
"150",
"129",
"108",
"101",
"105",
"90",
"96",
"89",
"99",
"125",
"89",
"107",
"96",
"116",
"104",
"110",
"120",
"150",
"147",
"146",
"166",
"136",
"130",
"128",
"104",
"114",
"92",
"87",
"95",
"79",
"109",
"88",
"112",
"89",
"95",
"99",
"100",
"95",
"95",
"90",
"92",
"83",
"104",
"87",
"82",
"104",
"90",
"113",
"106",
"115",
"160",
"122",
"161",
"149",
"167",
"166",
"145",
"134",
"138",
"119",
"132",
"123",
"119",
"106",
"110",
"141",
"105",
"104",
"123",
"112",
"140",
"120",
"105",
"102",
"106",
"104",
"123",
"87",
"97",
"96",
"108",
"95",
"99",
"89",
"104",
"101",
"100",
"91",
"96",
"86",
"109",
"87",
"97",
"88",
"88",
"87",
"107",
"87",
"91",
"110",
"100",
"95",
"81",
"90",
"90",
"96",
"81",
"62",
"88",
"95",
"80",
"95",
"76",
"73",
"67",
"69",
"80",
"87",
"103",
"79",
"62",
"97",
"92",
"90",
"79",
"77",
"97",
"82",
"107",
"99",
"91",
"95",
"95",
"87",
"101",
"125",
"74",
"93",
"92",
"94",
"99",
"90",
"88",
"94",
"92",
"91",
"89",
"84",
"96",
"64",
"99",
"87",
"90",
"103",
"78",
"79",
"96",
"78",
"83",
"92",
"81",
"73",
"101",
"77",
"80",
"93",
"79",
"77",
"92",
"81",
"97",
"78",
"83",
"81",
"86",
"81",
"106",
"100",
"84",
"101",
"80",
"68",
"82",
"87",
"96",
"89",
"88",
"81",
"75",
"74",
"55",
"94",
"79",
"66",
"84",
"81",
"86",
"77",
"82",
"76",
"91",
"82",
"90",
"84",
"92",
"84",
"87",
"79",
"94",
"77",
"82",
"66",
"86",
"80",
"82",
"73",
"76",
"82",
"70",
"76",
"79",
"70",
"71",
"88",
"88",
"71",
"76",
"64",
"75",
"88",
"73",
"80",
"81",
"83",
"71",
"65",
"74",
"88",
"66",
"84",
"69",
"75",
"78",
"95",
"67",
"80",
"96",
"88",
"109",
"86",
"92",
"82",
"87",
"79",
"75",
"87",
"77",
"75",
"96",
"106",
"125",
"107",
"77",
"99",
"110",
"119",
"106",
"93",
"113",
"95",
"104",
"97",
"132",
"110",
"138",
"128",
"142",
"183",
"235",
"315",
"438",
"653",
"1095",
"1535",
"2325",
"3265",
"4604",
"5973",
"7861",
"9431",
"11737",
"12946",
"15122",
"15568",
"16383",
"15898",
"16220",
"14302",
"13274",
"11244",
"9260",
"7539",
"5867",
"4412",
"3179",
"2142",
"1540",
"937",
"617",
"375",
"280",
"193",
"160",
"106",
"103",
"91",
"88",
"89",
"86",
"73",
"94",
"82",
"107",
"84",
"86",
"70",
"75",
"73",
"86",
"66",
"70",
"71",
"74",
"89",
"75",
"70",
"75",
"68",
"86",
"81",
"75",
"71",
"86",
"91",
"83",
"86",
"83",
"87",
"95",
"93",
"79",
"95",
"95",
"95",
"108",
"90",
"89",
"93",
"104",
"102",
"112",
"104",
"112",
"114",
"162",
"187",
"266",
"322",
"433",
"554",
"728",
"953",
"1259",
"1530",
"1791",
"1873",
"2268",
"2375",
"2593",
"2539",
"2506",
"2329",
"2299",
"2063",
"1870",
"1487",
"1346",
"1046",
"965",
"776",
"624",
"630",
"532",
"443",
"401",
"328",
"291",
"279",
"227",
"176",
"152",
"138",
"105",
"94",
"79",
"74",
"61",
"65",
"52",
"56",
"56",
"50",
"51",
"55",
"42",
"75",
"52",
"54",
"48",
"77",
"56",
"57",
"51",
"42",
"60",
"48",
"62",
"55",
"54",
"49",
"54",
"57",
"60",
"55",
"53",
"49",
"48",
"56",
"56",
"40",
"51",
"35",
"52",
"50",
"57",
"52",
"58",
"44",
"56",
"60",
"58",
"56",
"45",
"56",
"43",
"54",
"63",
"51",
"51",
"37",
"44",
"49",
"55",
"52",
"40",
"48",
"55",
"50",
"64",
"62",
"48",
"48",
"52",
"49",
"45",
"54",
"48",
"53",
"48",
"54",
"64",
"63",
"51",
"42",
"62",
"47",
"57",
"56",
"56",
"52",
"62",
"45",
"50",
"60",
"60",
"75",
"44",
"54",
"55",
"56",
"55",
"56",
"61",
"57",
"64",
"57",
"66",
"53",
"60",
"63",
"69",
"75",
"81",
"62",
"74",
"64",
"79",
"81",
"105",
"75",
"93",
"115",
"105",
"105",
"128",
"123",
"108",
"131",
"145",
"144",
"178",
"167",
"211",
"180",
"211",
"178",
"244",
"263",
"273",
"286",
"297",
"278",
"319",
"326",
"362",
"332",
"382",
"324",
"392",
"349",
"337",
"324",
"357",
"300",
"305",
"266",
"274",
"270",
"278",
"213",
"228",
"176",
"186",
"162",
"167",
"140",
"141",
"120",
"125",
"115",
"114",
"93",
"112",
"84",
"80",
"91",
"96",
"94",
"70",
"66",
"86",
"97",
"100",
"94",
"116",
"114",
"125",
"135",
"152",
"167",
"147",
"166",
"181",
"159",
"184",
"139",
"147",
"134",
"119",
"120",
"116",
"80",
"83",
"69",
"69",
"44",
"54",
"48",
"53",
"40",
"50",
"41",
"26030",
"Channel_info_start",
"Channel : Mg",
"Points : 0",
"Range : 0.000000 - 0.000000",
"Step : 0.010000",
"Channel_info_end",
"Channel_info_start",
"Channel : Al",
"Points : 0",
"Range : 0.000000 - 0.000000",
"Step : 0.010000",
"Channel_info_end",
"Channel_info_start",
"Channel : Si",
"Points : 0",
"Range : 0.000000 - 0.000000",
"Step : 0.010000",
"Channel_info_end",
"Channel_info_start",
"Channel : P ",
"Points : 0",
"Range : 0.000000 - 0.000000",
"Step : 0.010000",
"Channel_info_end",
"Channel_info_start",
"Channel : S ",
"Points : 0",
"Range : 0.000000 - 0.000000",
"Step : 0.010000",
"Channel_info_end",
"Channel_info_start",
"Channel : Cl",
"Points : 0",
"Range : 0.000000 - 0.000000",
"Step : 0.010000",
"Channel_info_end",
"Channel_info_start",
"Channel : K ",
"Points : 0",
"Range : 0.000000 - 0.000000",
"Step : 0.010000",
"Channel_info_end",
"Channel_info_start",
"Channel : Ca",
"Points : 0",
"Range : 0.000000 - 0.000000",
"Step : 0.010000",
"Channel_info_end",
"Channel_info_start",
"Channel : Ti",
"Points : 0",
"Range : 0.000000 - 0.000000",
"Step : 0.010000",
"Channel_info_end",
"Channel_info_start",
"Channel : V ",
"Points : 0",
"Range : 0.000000 - 0.000000",
"Step : 0.010000",
"Channel_info_end",
"Channel_info_start",
"Channel : Cr",
"Points : 0",
"Range : 0.000000 - 0.000000",
"Step : 0.010000",
"Channel_info_end",
"Channel_info_start",
"Channel : Mn",
"Points : 0",
"Range : 0.000000 - 0.000000",
"Step : 0.010000",
"Channel_info_end",
"Channel_info_start",
"Channel : Fe",
"Points : 0",
"Range : 0.000000 - 0.000000",
"Step : 0.010000",
"Channel_info_end",
"Channel_info_start",
"Channel : Cu",
"Points : 0",
"Range : 0.000000 - 0.000000",
"Step : 0.010000",
"Channel_info_end",
"Channel_info_start",
"Channel : Zn",
"Points : 0",
"Range : 0.000000 - 0.000000",
"Step : 0.010000",
"Channel_info_end",
"Channel_info_start",
"Channel : Sr",
"Points : 0",
"Range : 0.000000 - 0.000000",
"Step : 0.010000",
"Channel_info_end",
"Channel_info_start",
"Channel : Pb",
"Points : 0",
"Range : 0.000000 - 0.000000",
"Step : 0.010000",
"Channel_info_end",
"",
"Qualitative Result",
"--------------------------------------------------------------------------------",
"Element :  Ca, Sr, Ta, Rh",
"",
"Peak List",
"--------------------------------------------------------------------------------",
"Channel               Line        keV     Net Int.(cps/uA)",
"--------------------------------------------------------------------------------",
"Na                    CaLa         0.35     0.006",
"                      ----         0.52     0.008",
"                      ----         0.60     0.007",
"                      ----         1.59     0.031",
"                      SrLa         1.81     0.576",
"                      CaKa         3.68     0.187",
"                      CaKb         4.01     0.021",
"                      TaLa         8.15     0.058",
"                      TaLb1        9.32     0.030",
"                      SrKa        14.12     7.914",
"                      SrKb        15.81     1.230",
"                      RhKaC       19.12     0.125",
"                      ----        19.38     0.083",
"                      RhKa        20.11     0.065",
"--------------------------------------------------------------------------------",
"",
"Quantitative Result",
"--------------------------------------------------------------------------------",
"Analyte               Result             Std.Dev. Proc.-Calc. Line Intensity(cps/uA)",
"--------------------------------------------------------------------------------",
"====[No. 1 Layer]====< Layer1               >===============================",
"Layer1                   0.000 ug/cm2    -------- Flux       -------- --------",