File: inputs/edxCalibration/edx_raw/2010/junho/Te 31510.20100626145425.csv
"Sample    : Te 31510",
"Operator  : thiago",
"Comment  : cubatao-g-policarbonato",
"Group     : kerr2007ag180cal_lt",
"Date       : 2010-06-26 14:48:16",
"",
"Mesurement Condition",
"------------------------------------------------------------------------------------",
"Instrument : 700HS2   Atmosphere : Vac.   Collimator : 10(mm)   Spin : No",
"------------------------------------------------------------------------------------",
"Analyte               TG kV   uA      FI Acq.(keV)  Anal.(keV)  Time(sec)     DT(%)",
"------------------------------------------------------------------------------------",
"Na                    Rh 50  360-Auto Al  0 - 20    0.8 - 1.2   Live -  180   15",
"",
"<Profile>",
"Channel_info_start",
"Channel : Na",
"Points : 2048",
"Range : 0.000000 - 20.48",
"Step : 0.010000",
"Channel_info_end",
"0",
"0",
"0",
"0",
"0",
"0",
"0",
"0",
"0",
"0",
"0",
"0",
"0",
"0",
"0",
"15",
"47",
"37",
"49",
"45",
"47",
"29",
"36",
"36",
"43",
"35",
"40",
"40",
"47",
"31",
"40",
"35",
"44",
"31",
"33",
"41",
"31",
"53",
"37",
"37",
"43",
"48",
"49",
"47",
"34",
"46",
"37",
"35",
"44",
"55",
"29",
"47",
"28",
"36",
"41",
"39",
"43",
"32",
"36",
"43",
"36",
"47",
"44",
"31",
"47",
"44",
"55",
"40",
"43",
"45",
"50",
"48",
"47",
"48",
"50",
"49",
"56",
"57",
"58",
"53",
"67",
"60",
"53",
"55",
"56",
"56",
"64",
"50",
"50",
"64",
"46",
"50",
"68",
"58",
"84",
"64",
"116",
"130",
"181",
"239",
"274",
"284",
"293",
"228",
"157",
"109",
"80",
"60",
"72",
"73",
"85",
"65",
"115",
"129",
"142",
"129",
"136",
"130",
"129",
"96",
"84",
"87",
"63",
"47",
"58",
"61",
"76",
"76",
"91",
"65",
"74",
"67",
"65",
"56",
"46",
"63",
"55",
"67",
"71",
"62",
"62",
"71",
"79",
"85",
"57",
"52",
"55",
"64",
"51",
"61",
"63",
"77",
"87",
"83",
"85",
"88",
"89",
"79",
"101",
"94",
"134",
"135",
"212",
"310",
"444",
"548",
"647",
"682",
"682",
"543",
"418",
"367",
"320",
"233",
"227",
"236",
"261",
"355",
"419",
"623",
"861",
"1299",
"2027",
"3256",
"4950",
"7334",
"10661",
"12858",
"14903",
"14411",
"13113",
"10341",
"7074",
"4248",
"2614",
"1753",
"1671",
"2198",
"3755",
"5349",
"7051",
"8633",
"9683",
"9165",
"8444",
"7059",
"5815",
"4269",
"3127",
"2122",
"1767",
"1453",
"1454",
"1636",
"1960",
"2100",
"2088",
"1803",
"1529",
"1046",
"730",
"530",
"393",
"387",
"465",
"557",
"805",
"928",
"1111",
"1136",
"1069",
"875",
"689",
"454",
"397",
"299",
"303",
"385",
"472",
"626",
"733",
"755",
"757",
"621",
"574",
"446",
"288",
"207",
"161",
"113",
"109",
"72",
"89",
"81",
"61",
"62",
"72",
"48",
"61",
"89",
"72",
"86",
"70",
"95",
"97",
"95",
"93",
"107",
"122",
"100",
"127",
"98",
"115",
"104",
"96",
"111",
"89",
"101",
"103",
"86",
"82",
"99",
"89",
"99",
"82",
"74",
"88",
"75",
"87",
"94",
"84",
"99",
"86",
"95",
"113",
"103",
"127",
"112",
"106",
"98",
"93",
"107",
"104",
"111",
"127",
"105",
"118",
"128",
"133",
"137",
"137",
"121",
"145",
"128",
"155",
"136",
"131",
"125",
"139",
"121",
"144",
"125",
"134",
"112",
"125",
"111",
"122",
"117",
"115",
"115",
"133",
"110",
"143",
"134",
"135",
"116",
"146",
"154",
"124",
"120",
"113",
"127",
"133",
"140",
"166",
"139",
"155",
"156",
"148",
"167",
"144",
"176",
"166",
"156",
"170",
"140",
"185",
"156",
"177",
"170",
"168",
"183",
"172",
"184",
"177",
"175",
"183",
"205",
"193",
"169",
"197",
"169",
"175",
"164",
"197",
"197",
"169",
"157",
"167",
"173",
"189",
"177",
"163",
"173",
"201",
"167",
"164",
"166",
"167",
"161",
"176",
"161",
"199",
"200",
"202",
"188",
"179",
"204",
"263",
"203",
"216",
"226",
"264",
"194",
"237",
"219",
"183",
"190",
"177",
"191",
"159",
"171",
"164",
"157",
"161",
"169",
"171",
"146",
"181",
"131",
"135",
"173",
"149",
"152",
"171",
"170",
"176",
"178",
"211",
"200",
"216",
"221",
"230",
"217",
"226",
"197",
"194",
"215",
"182",
"184",
"204",
"170",
"227",
"178",
"167",
"187",
"187",
"179",
"189",
"179",
"179",
"175",
"180",
"157",
"166",
"179",
"176",
"149",
"199",
"155",
"170",
"172",
"159",
"155",
"189",
"165",
"161",
"136",
"147",
"158",
"166",
"152",
"192",
"164",
"177",
"145",
"169",
"160",
"172",
"163",
"175",
"161",
"166",
"152",
"154",
"140",
"155",
"156",
"159",
"137",
"152",
"148",
"139",
"165",
"136",
"163",
"169",
"109",
"146",
"145",
"125",
"147",
"165",
"159",
"152",
"140",
"143",
"157",
"147",
"133",
"148",
"148",
"172",
"146",
"155",
"146",
"179",
"145",
"169",
"152",
"124",
"136",
"166",
"145",
"164",
"155",
"141",
"135",
"155",
"133",
"151",
"144",
"172",
"154",
"168",
"137",
"181",
"163",
"167",
"146",
"171",
"167",
"131",
"145",
"146",
"149",
"164",
"160",
"153",
"156",
"136",
"149",
"137",
"125",
"180",
"136",
"144",
"160",
"134",
"145",
"167",
"132",
"151",
"136",
"119",
"171",
"140",
"127",
"140",
"152",
"122",
"153",
"139",
"151",
"130",
"132",
"164",
"124",
"172",
"148",
"136",
"143",
"135",
"133",
"139",
"141",
"134",
"137",
"147",
"145",
"146",
"145",
"121",
"117",
"127",
"131",
"134",
"137",
"130",
"146",
"156",
"121",
"129",
"137",
"139",
"140",
"132",
"125",
"116",
"128",
"140",
"107",
"133",
"115",
"139",
"147",
"120",
"124",
"125",
"136",
"146",
"124",
"135",
"133",
"147",
"132",
"164",
"122",
"127",
"113",
"136",
"145",
"135",
"134",
"131",
"106",
"131",
"139",
"132",
"104",
"132",
"124",
"132",
"113",
"129",
"104",
"130",
"121",
"118",
"112",
"128",
"137",
"118",
"115",
"119",
"100",
"170",
"127",
"137",
"119",
"136",
"133",
"127",
"128",
"128",
"113",
"122",
"135",
"152",
"93",
"112",
"113",
"155",
"117",
"105",
"117",
"100",
"108",
"94",
"117",
"108",
"107",
"116",
"131",
"119",
"104",
"113",
"110",
"119",
"122",
"123",
"119",
"97",
"120",
"101",
"125",
"131",
"106",
"100",
"109",
"135",
"112",
"128",
"131",
"111",
"106",
"128",
"115",
"109",
"105",
"110",
"127",
"125",
"115",
"107",
"112",
"116",
"107",
"117",
"107",
"127",
"123",
"104",
"101",
"133",
"107",
"120",
"122",
"117",
"115",
"118",
"103",
"105",
"103",
"107",
"112",
"100",
"96",
"119",
"113",
"122",
"91",
"112",
"117",
"107",
"89",
"110",
"107",
"96",
"98",
"100",
"103",
"115",
"101",
"111",
"89",
"104",
"108",
"121",
"107",
"113",
"105",
"123",
"98",
"95",
"92",
"103",
"84",
"106",
"107",
"105",
"120",
"96",
"97",
"95",
"92",
"106",
"86",
"96",
"104",
"103",
"88",
"98",
"101",
"107",
"88",
"87",
"103",
"94",
"84",
"93",
"87",
"98",
"79",
"85",
"76",
"97",
"100",
"96",
"101",
"106",
"83",
"83",
"84",
"89",
"86",
"112",
"84",
"112",
"108",
"100",
"82",
"93",
"97",
"101",
"85",
"99",
"64",
"87",
"85",
"92",
"81",
"76",
"87",
"75",
"96",
"95",
"95",
"68",
"79",
"100",
"97",
"92",
"93",
"86",
"77",
"82",
"80",
"87",
"83",
"83",
"84",
"80",
"75",
"85",
"67",
"95",
"95",
"98",
"81",
"67",
"88",
"74",
"88",
"103",
"93",
"86",
"82",
"81",
"89",
"70",
"76",
"93",
"96",
"97",
"95",
"83",
"72",
"94",
"95",
"82",
"80",
"107",
"101",
"104",
"93",
"120",
"87",
"88",
"75",
"94",
"86",
"84",
"62",
"103",
"88",
"75",
"93",
"94",
"81",
"69",
"83",
"86",
"83",
"86",
"74",
"106",
"84",
"99",
"64",
"89",
"82",
"82",
"116",
"88",
"82",
"93",
"101",
"95",
"107",
"84",
"103",
"124",
"106",
"98",
"98",
"82",
"79",
"97",
"122",
"89",
"97",
"108",
"113",
"116",
"107",
"109",
"110",
"139",
"122",
"116",
"135",
"145",
"143",
"149",
"149",
"160",
"167",
"192",
"197",
"206",
"227",
"254",
"251",
"297",
"297",
"325",
"292",
"365",
"340",
"410",
"429",
"452",
"441",
"548",
"495",
"530",
"516",
"550",
"575",
"573",
"525",
"564",
"509",
"502",
"464",
"523",
"469",
"442",
"375",
"392",
"391",
"348",
"304",
"316",
"291",
"267",
"277",
"221",
"232",
"192",
"183",
"182",
"152",
"179",
"132",
"136",
"115",
"141",
"131",
"125",
"166",
"155",
"163",
"170",
"196",
"238",
"215",
"277",
"276",
"302",
"335",
"382",
"362",
"341",
"369",
"368",
"320",
"350",
"288",
"319",
"230",
"224",
"184",
"179",
"131",
"130",
"112",
"108",
"91",
"97",
"69",
"83",
"81",
"102243",
"Channel_info_start",
"Channel : Mg",
"Points : 0",
"Range : 0.000000 - 0.000000",
"Step : 0.010000",
"Channel_info_end",
"Channel_info_start",
"Channel : Al",
"Points : 0",
"Range : 0.000000 - 0.000000",
"Step : 0.010000",
"Channel_info_end",
"Channel_info_start",
"Channel : Si",
"Points : 0",
"Range : 0.000000 - 0.000000",
"Step : 0.010000",
"Channel_info_end",
"Channel_info_start",
"Channel : P ",
"Points : 0",
"Range : 0.000000 - 0.000000",
"Step : 0.010000",
"Channel_info_end",
"Channel_info_start",
"Channel : S ",
"Points : 0",
"Range : 0.000000 - 0.000000",
"Step : 0.010000",
"Channel_info_end",
"Channel_info_start",
"Channel : Cl",
"Points : 0",
"Range : 0.000000 - 0.000000",
"Step : 0.010000",
"Channel_info_end",
"Channel_info_start",
"Channel : K ",
"Points : 0",
"Range : 0.000000 - 0.000000",
"Step : 0.010000",
"Channel_info_end",
"Channel_info_start",
"Channel : Ca",
"Points : 0",
"Range : 0.000000 - 0.000000",
"Step : 0.010000",
"Channel_info_end",
"Channel_info_start",
"Channel : Ti",
"Points : 0",
"Range : 0.000000 - 0.000000",
"Step : 0.010000",
"Channel_info_end",
"Channel_info_start",
"Channel : V ",
"Points : 0",
"Range : 0.000000 - 0.000000",
"Step : 0.010000",
"Channel_info_end",
"Channel_info_start",
"Channel : Cr",
"Points : 0",
"Range : 0.000000 - 0.000000",
"Step : 0.010000",
"Channel_info_end",
"Channel_info_start",
"Channel : Mn",
"Points : 0",
"Range : 0.000000 - 0.000000",
"Step : 0.010000",
"Channel_info_end",
"Channel_info_start",
"Channel : Fe",
"Points : 0",
"Range : 0.000000 - 0.000000",
"Step : 0.010000",
"Channel_info_end",
"Channel_info_start",
"Channel : Cu",
"Points : 0",
"Range : 0.000000 - 0.000000",
"Step : 0.010000",
"Channel_info_end",
"Channel_info_start",
"Channel : Zn",
"Points : 0",
"Range : 0.000000 - 0.000000",
"Step : 0.010000",
"Channel_info_end",
"Channel_info_start",
"Channel : Sr",
"Points : 0",
"Range : 0.000000 - 0.000000",
"Step : 0.010000",
"Channel_info_end",
"Channel_info_start",
"Channel : Pb",
"Points : 0",
"Range : 0.000000 - 0.000000",
"Step : 0.010000",
"Channel_info_end",
"",
"Qualitative Result",
"--------------------------------------------------------------------------------",
"Element :  P , S , Te, K , Ca, Rh",
"",
"Peak List",
"--------------------------------------------------------------------------------",
"Channel               Line        keV     Net Int.(cps/uA)",
"--------------------------------------------------------------------------------",
"Na                    P Ka         2.02     0.044",
"                      S Ka         2.28     0.017",
"                      TeLL         3.34     0.091",
"                      K Ka         3.34     0.017",
"                      CaKa         3.76     3.118",
"                      CaKb         4.04     0.437",
"                      TeLb1        4.04     1.554",
"                      TeLb2        4.31     0.355",
"                      TeLg1        4.57     0.178",
"                      TeLg2        4.82     0.126",
"                      RhKaC       19.20     0.127",
"                      ----        19.45     0.061",
"                      RhKa        20.05     0.095",
"--------------------------------------------------------------------------------",
"",
"Quantitative Result",
"--------------------------------------------------------------------------------",
"Analyte               Result             Std.Dev. Proc.-Calc. Line Intensity(cps/uA)",
"--------------------------------------------------------------------------------",
"====[No. 1 Layer]====< Layer1               >===============================",
"Layer1                   0.000 ug/cm2    -------- Flux       -------- --------",