File: inputs/edxCalibration/edx_raw/2010/junho/Te 31510.20100526003900.csv
"Sample    : Te 31510",
"Operator  : luisf",
"Comment  : cubatao-g-policarbonato",
"Group     : kerr2007ag180cal_lt",
"Date       : 2010-05-26 00:34:47",
"",
"Mesurement Condition",
"------------------------------------------------------------------------------------",
"Instrument : 700HS2   Atmosphere : Vac.   Collimator : 10(mm)   Spin : No",
"------------------------------------------------------------------------------------",
"Analyte               TG kV   uA      FI Acq.(keV)  Anal.(keV)  Time(sec)     DT(%)",
"------------------------------------------------------------------------------------",
"Na                    Rh 50  360-Auto Al  0 - 20    0.8 - 1.2   Live -  180   15",
"",
"<Profile>",
"Channel_info_start",
"Channel : Na",
"Points : 2048",
"Range : 0.000000 - 20.48",
"Step : 0.010000",
"Channel_info_end",
"0",
"0",
"0",
"0",
"0",
"0",
"0",
"0",
"0",
"0",
"0",
"0",
"0",
"0",
"0",
"13",
"31",
"42",
"38",
"48",
"40",
"37",
"50",
"42",
"35",
"43",
"48",
"32",
"43",
"45",
"40",
"44",
"34",
"39",
"33",
"34",
"35",
"33",
"47",
"44",
"46",
"51",
"44",
"43",
"39",
"47",
"51",
"35",
"45",
"48",
"36",
"31",
"51",
"37",
"39",
"40",
"31",
"47",
"51",
"39",
"36",
"44",
"47",
"43",
"38",
"44",
"49",
"42",
"50",
"47",
"35",
"35",
"56",
"55",
"51",
"54",
"39",
"63",
"56",
"54",
"44",
"64",
"66",
"54",
"69",
"42",
"48",
"63",
"59",
"44",
"59",
"60",
"62",
"64",
"66",
"91",
"103",
"128",
"178",
"238",
"291",
"280",
"271",
"221",
"161",
"143",
"114",
"81",
"57",
"86",
"73",
"94",
"111",
"150",
"137",
"152",
"132",
"115",
"115",
"87",
"84",
"62",
"57",
"74",
"64",
"49",
"62",
"58",
"78",
"69",
"58",
"62",
"58",
"67",
"59",
"69",
"73",
"58",
"56",
"75",
"66",
"60",
"74",
"69",
"54",
"78",
"69",
"59",
"60",
"62",
"94",
"58",
"75",
"83",
"89",
"82",
"127",
"115",
"97",
"119",
"110",
"186",
"239",
"314",
"454",
"534",
"626",
"727",
"616",
"557",
"473",
"370",
"294",
"224",
"234",
"220",
"307",
"354",
"492",
"624",
"963",
"1358",
"2242",
"3405",
"5375",
"8022",
"10986",
"13227",
"15236",
"14630",
"13295",
"10034",
"6830",
"4107",
"2543",
"1670",
"1789",
"2470",
"4020",
"5675",
"7492",
"8850",
"9649",
"9302",
"8345",
"6881",
"5514",
"4036",
"3109",
"2140",
"1764",
"1431",
"1610",
"1737",
"2103",
"2061",
"2043",
"1830",
"1452",
"984",
"750",
"493",
"395",
"384",
"480",
"584",
"844",
"987",
"1104",
"1109",
"1047",
"812",
"634",
"461",
"366",
"301",
"367",
"373",
"529",
"622",
"790",
"804",
"750",
"638",
"509",
"390",
"254",
"224",
"156",
"131",
"114",
"91",
"92",
"60",
"70",
"74",
"61",
"64",
"66",
"66",
"70",
"69",
"83",
"90",
"95",
"107",
"108",
"92",
"109",
"101",
"106",
"121",
"96",
"102",
"126",
"106",
"99",
"119",
"94",
"96",
"66",
"102",
"86",
"74",
"93",
"74",
"70",
"75",
"87",
"77",
"99",
"86",
"90",
"117",
"106",
"118",
"114",
"120",
"97",
"102",
"130",
"117",
"128",
"120",
"114",
"117",
"125",
"143",
"139",
"138",
"119",
"123",
"156",
"105",
"137",
"140",
"123",
"123",
"149",
"136",
"164",
"150",
"150",
"130",
"131",
"139",
"115",
"99",
"84",
"138",
"132",
"129",
"120",
"140",
"121",
"166",
"146",
"133",
"133",
"110",
"138",
"137",
"165",
"153",
"158",
"149",
"137",
"137",
"165",
"132",
"169",
"167",
"169",
"166",
"179",
"178",
"161",
"154",
"142",
"170",
"179",
"177",
"180",
"181",
"186",
"185",
"185",
"170",
"223",
"191",
"197",
"190",
"186",
"181",
"196",
"187",
"197",
"203",
"184",
"160",
"163",
"175",
"175",
"179",
"195",
"153",
"174",
"155",
"190",
"191",
"160",
"164",
"155",
"176",
"203",
"208",
"189",
"202",
"213",
"198",
"242",
"219",
"221",
"216",
"233",
"201",
"208",
"175",
"155",
"141",
"176",
"155",
"166",
"185",
"189",
"166",
"169",
"136",
"166",
"156",
"146",
"139",
"165",
"165",
"162",
"168",
"186",
"193",
"223",
"235",
"235",
"251",
"240",
"227",
"226",
"196",
"210",
"157",
"186",
"192",
"201",
"165",
"176",
"153",
"169",
"168",
"181",
"174",
"187",
"150",
"186",
"174",
"165",
"172",
"177",
"169",
"173",
"165",
"190",
"163",
"184",
"190",
"176",
"169",
"177",
"196",
"167",
"180",
"165",
"150",
"177",
"180",
"155",
"146",
"179",
"178",
"181",
"172",
"169",
"170",
"162",
"180",
"173",
"168",
"170",
"123",
"136",
"157",
"146",
"143",
"158",
"140",
"156",
"153",
"146",
"140",
"157",
"143",
"139",
"122",
"165",
"150",
"132",
"117",
"152",
"153",
"161",
"155",
"172",
"161",
"149",
"127",
"166",
"146",
"156",
"146",
"160",
"151",
"153",
"170",
"146",
"166",
"154",
"149",
"140",
"152",
"193",
"165",
"161",
"169",
"153",
"152",
"160",
"137",
"162",
"173",
"160",
"157",
"156",
"153",
"156",
"131",
"167",
"185",
"134",
"154",
"142",
"145",
"167",
"160",
"165",
"152",
"165",
"156",
"154",
"136",
"153",
"120",
"136",
"122",
"133",
"145",
"156",
"130",
"149",
"123",
"148",
"137",
"145",
"141",
"156",
"150",
"150",
"128",
"142",
"162",
"140",
"136",
"162",
"122",
"132",
"149",
"146",
"139",
"133",
"123",
"120",
"120",
"109",
"131",
"150",
"144",
"117",
"141",
"145",
"126",
"128",
"134",
"133",
"144",
"156",
"122",
"138",
"149",
"128",
"140",
"120",
"123",
"106",
"116",
"145",
"115",
"138",
"122",
"111",
"133",
"132",
"148",
"128",
"121",
"140",
"142",
"151",
"134",
"125",
"150",
"131",
"123",
"136",
"128",
"151",
"121",
"141",
"130",
"116",
"104",
"137",
"111",
"150",
"138",
"113",
"121",
"114",
"115",
"114",
"130",
"117",
"137",
"123",
"134",
"144",
"125",
"134",
"126",
"118",
"118",
"122",
"128",
"131",
"132",
"130",
"123",
"130",
"119",
"120",
"114",
"128",
"109",
"150",
"128",
"115",
"143",
"128",
"102",
"114",
"105",
"130",
"110",
"101",
"122",
"115",
"131",
"113",
"123",
"102",
"125",
"120",
"126",
"130",
"103",
"117",
"118",
"113",
"109",
"113",
"98",
"115",
"118",
"98",
"120",
"127",
"105",
"97",
"121",
"137",
"122",
"102",
"106",
"127",
"102",
"108",
"95",
"110",
"103",
"116",
"119",
"117",
"136",
"129",
"114",
"109",
"94",
"118",
"115",
"118",
"101",
"110",
"90",
"102",
"106",
"90",
"126",
"103",
"99",
"103",
"107",
"136",
"102",
"96",
"93",
"107",
"102",
"110",
"86",
"98",
"107",
"105",
"101",
"99",
"92",
"128",
"85",
"98",
"94",
"103",
"97",
"106",
"104",
"101",
"94",
"99",
"117",
"91",
"95",
"90",
"104",
"106",
"97",
"111",
"103",
"103",
"85",
"118",
"96",
"114",
"80",
"94",
"102",
"108",
"96",
"95",
"99",
"81",
"91",
"114",
"71",
"97",
"108",
"98",
"80",
"102",
"81",
"84",
"99",
"98",
"114",
"92",
"99",
"90",
"108",
"89",
"92",
"93",
"91",
"102",
"89",
"107",
"84",
"90",
"93",
"102",
"106",
"83",
"96",
"94",
"97",
"102",
"85",
"94",
"86",
"111",
"86",
"91",
"92",
"102",
"81",
"109",
"90",
"87",
"74",
"103",
"74",
"96",
"78",
"104",
"89",
"84",
"90",
"92",
"72",
"94",
"71",
"83",
"87",
"89",
"86",
"87",
"98",
"86",
"92",
"74",
"81",
"83",
"85",
"92",
"93",
"92",
"87",
"95",
"90",
"92",
"87",
"101",
"85",
"118",
"82",
"85",
"94",
"87",
"79",
"96",
"93",
"111",
"105",
"98",
"79",
"96",
"74",
"103",
"92",
"94",
"98",
"77",
"73",
"97",
"72",
"85",
"74",
"89",
"108",
"91",
"79",
"90",
"98",
"79",
"83",
"91",
"93",
"80",
"81",
"90",
"84",
"99",
"94",
"108",
"95",
"91",
"102",
"109",
"86",
"105",
"87",
"107",
"94",
"97",
"103",
"104",
"118",
"111",
"120",
"109",
"106",
"109",
"121",
"101",
"113",
"111",
"117",
"131",
"126",
"128",
"121",
"153",
"146",
"153",
"157",
"170",
"195",
"204",
"211",
"215",
"230",
"262",
"244",
"291",
"321",
"333",
"339",
"374",
"383",
"410",
"433",
"445",
"493",
"480",
"536",
"493",
"474",
"546",
"538",
"609",
"542",
"515",
"467",
"532",
"473",
"423",
"447",
"458",
"398",
"361",
"345",
"377",
"302",
"320",
"287",
"269",
"215",
"197",
"183",
"204",
"166",
"155",
"146",
"150",
"160",
"132",
"136",
"156",
"149",
"134",
"155",
"175",
"177",
"205",
"220",
"259",
"247",
"311",
"279",
"319",
"369",
"350",
"389",
"422",
"378",
"400",
"344",
"353",
"309",
"262",
"235",
"240",
"183",
"160",
"143",
"134",
"105",
"99",
"77",
"79",
"67",
"89",
"74",
"103119",
"Channel_info_start",
"Channel : Mg",
"Points : 0",
"Range : 0.000000 - 0.000000",
"Step : 0.010000",
"Channel_info_end",
"Channel_info_start",
"Channel : Al",
"Points : 0",
"Range : 0.000000 - 0.000000",
"Step : 0.010000",
"Channel_info_end",
"Channel_info_start",
"Channel : Si",
"Points : 0",
"Range : 0.000000 - 0.000000",
"Step : 0.010000",
"Channel_info_end",
"Channel_info_start",
"Channel : P ",
"Points : 0",
"Range : 0.000000 - 0.000000",
"Step : 0.010000",
"Channel_info_end",
"Channel_info_start",
"Channel : S ",
"Points : 0",
"Range : 0.000000 - 0.000000",
"Step : 0.010000",
"Channel_info_end",
"Channel_info_start",
"Channel : Cl",
"Points : 0",
"Range : 0.000000 - 0.000000",
"Step : 0.010000",
"Channel_info_end",
"Channel_info_start",
"Channel : K ",
"Points : 0",
"Range : 0.000000 - 0.000000",
"Step : 0.010000",
"Channel_info_end",
"Channel_info_start",
"Channel : Ca",
"Points : 0",
"Range : 0.000000 - 0.000000",
"Step : 0.010000",
"Channel_info_end",
"Channel_info_start",
"Channel : Ti",
"Points : 0",
"Range : 0.000000 - 0.000000",
"Step : 0.010000",
"Channel_info_end",
"Channel_info_start",
"Channel : V ",
"Points : 0",
"Range : 0.000000 - 0.000000",
"Step : 0.010000",
"Channel_info_end",
"Channel_info_start",
"Channel : Cr",
"Points : 0",
"Range : 0.000000 - 0.000000",
"Step : 0.010000",
"Channel_info_end",
"Channel_info_start",
"Channel : Mn",
"Points : 0",
"Range : 0.000000 - 0.000000",
"Step : 0.010000",
"Channel_info_end",
"Channel_info_start",
"Channel : Fe",
"Points : 0",
"Range : 0.000000 - 0.000000",
"Step : 0.010000",
"Channel_info_end",
"Channel_info_start",
"Channel : Cu",
"Points : 0",
"Range : 0.000000 - 0.000000",
"Step : 0.010000",
"Channel_info_end",
"Channel_info_start",
"Channel : Zn",
"Points : 0",
"Range : 0.000000 - 0.000000",
"Step : 0.010000",
"Channel_info_end",
"Channel_info_start",
"Channel : Sr",
"Points : 0",
"Range : 0.000000 - 0.000000",
"Step : 0.010000",
"Channel_info_end",
"Channel_info_start",
"Channel : Pb",
"Points : 0",
"Range : 0.000000 - 0.000000",
"Step : 0.010000",
"Channel_info_end",
"",
"Qualitative Result",
"--------------------------------------------------------------------------------",
"Element :  P , S , Te, K , Ca, Ru",
"",
"Peak List",
"--------------------------------------------------------------------------------",
"Channel               Line        keV     Net Int.(cps/uA)",
"--------------------------------------------------------------------------------",
"Na                    P Ka         2.00     0.044",
"                      S Ka         2.29     0.017",
"                      TeLL         3.34     0.092",
"                      K Ka         3.34     0.028",
"                      CaKa         3.76     3.222",
"                      CaKb         4.04     0.451",
"                      TeLb1        4.04     1.570",
"                      TeLb2        4.30     0.357",
"                      TeLg1        4.58     0.174",
"                      TeLg2        4.81     0.128",
"                      RuKa        19.20     0.136",
"                      ----        19.49     0.054",
"--------------------------------------------------------------------------------",
"",
"Quantitative Result",
"--------------------------------------------------------------------------------",
"Analyte               Result             Std.Dev. Proc.-Calc. Line Intensity(cps/uA)",
"--------------------------------------------------------------------------------",
"====[No. 1 Layer]====< Layer1               >===============================",
"Layer1                   0.000 ug/cm2    -------- Flux       -------- --------",