File: inputs/edxCalibration/edx_raw/2010/junho/Te 31510.20100611033228.csv
"Sample    : Te 31510",
"Operator  : Luís",
"Comment  : cubatao-g-policarbonato",
"Group     : kerr2007ag180cal_lt",
"Date       : 2010-06-11 03:28:15",
"",
"Mesurement Condition",
"------------------------------------------------------------------------------------",
"Instrument : 700HS2   Atmosphere : Vac.   Collimator : 10(mm)   Spin : No",
"------------------------------------------------------------------------------------",
"Analyte               TG kV   uA      FI Acq.(keV)  Anal.(keV)  Time(sec)     DT(%)",
"------------------------------------------------------------------------------------",
"Na                    Rh 50  360-Auto Al  0 - 20    0.8 - 1.2   Live -  180   15",
"",
"<Profile>",
"Channel_info_start",
"Channel : Na",
"Points : 2048",
"Range : 0.000000 - 20.48",
"Step : 0.010000",
"Channel_info_end",
"0",
"0",
"0",
"0",
"0",
"0",
"0",
"0",
"0",
"0",
"0",
"0",
"0",
"1",
"0",
"24",
"33",
"37",
"44",
"43",
"38",
"47",
"35",
"37",
"37",
"36",
"31",
"40",
"60",
"56",
"36",
"44",
"50",
"32",
"47",
"36",
"40",
"39",
"44",
"34",
"48",
"52",
"44",
"40",
"52",
"25",
"47",
"37",
"42",
"51",
"42",
"39",
"38",
"42",
"51",
"38",
"34",
"37",
"39",
"34",
"46",
"24",
"48",
"36",
"42",
"37",
"38",
"45",
"51",
"36",
"47",
"42",
"39",
"43",
"54",
"49",
"51",
"50",
"52",
"51",
"52",
"51",
"46",
"59",
"52",
"42",
"72",
"54",
"51",
"49",
"54",
"61",
"64",
"74",
"70",
"102",
"103",
"149",
"202",
"216",
"304",
"311",
"281",
"209",
"177",
"105",
"90",
"78",
"57",
"76",
"81",
"100",
"125",
"126",
"109",
"145",
"135",
"131",
"114",
"100",
"87",
"74",
"63",
"60",
"54",
"54",
"63",
"62",
"69",
"73",
"78",
"59",
"64",
"74",
"61",
"57",
"69",
"54",
"52",
"63",
"56",
"85",
"62",
"63",
"72",
"70",
"69",
"76",
"61",
"71",
"82",
"68",
"91",
"68",
"87",
"96",
"93",
"104",
"99",
"129",
"142",
"191",
"237",
"313",
"448",
"573",
"680",
"638",
"623",
"572",
"446",
"368",
"274",
"216",
"264",
"247",
"299",
"330",
"501",
"662",
"944",
"1431",
"2274",
"3540",
"5544",
"7956",
"11091",
"13555",
"15265",
"14368",
"12830",
"9621",
"6539",
"3916",
"2353",
"1607",
"1773",
"2581",
"4194",
"5734",
"7575",
"8718",
"9486",
"8951",
"8436",
"6705",
"5561",
"3980",
"2955",
"2062",
"1663",
"1455",
"1605",
"1685",
"2020",
"2060",
"1974",
"1649",
"1427",
"1052",
"712",
"465",
"381",
"410",
"479",
"635",
"849",
"932",
"1109",
"1023",
"1019",
"766",
"611",
"423",
"371",
"287",
"347",
"420",
"554",
"643",
"743",
"754",
"649",
"637",
"535",
"360",
"287",
"187",
"149",
"121",
"110",
"92",
"75",
"75",
"73",
"57",
"67",
"58",
"68",
"62",
"96",
"88",
"85",
"87",
"85",
"74",
"110",
"112",
"96",
"112",
"125",
"102",
"135",
"115",
"97",
"116",
"126",
"99",
"80",
"97",
"76",
"99",
"92",
"85",
"78",
"90",
"85",
"87",
"76",
"104",
"62",
"114",
"78",
"90",
"86",
"98",
"86",
"96",
"115",
"115",
"110",
"125",
"142",
"145",
"122",
"123",
"111",
"126",
"128",
"104",
"135",
"149",
"131",
"128",
"114",
"123",
"143",
"146",
"115",
"164",
"133",
"142",
"120",
"134",
"152",
"125",
"125",
"120",
"128",
"145",
"110",
"121",
"121",
"116",
"155",
"125",
"147",
"140",
"141",
"137",
"128",
"146",
"159",
"162",
"151",
"164",
"164",
"154",
"146",
"141",
"149",
"164",
"175",
"181",
"188",
"171",
"153",
"150",
"164",
"179",
"177",
"193",
"181",
"155",
"180",
"183",
"186",
"181",
"193",
"183",
"193",
"197",
"200",
"176",
"175",
"199",
"194",
"164",
"202",
"166",
"176",
"177",
"166",
"177",
"210",
"132",
"173",
"164",
"186",
"175",
"173",
"183",
"156",
"216",
"183",
"220",
"200",
"205",
"178",
"190",
"232",
"205",
"209",
"214",
"214",
"209",
"185",
"186",
"188",
"180",
"165",
"163",
"159",
"161",
"177",
"151",
"152",
"168",
"166",
"141",
"144",
"156",
"157",
"150",
"154",
"167",
"208",
"177",
"212",
"220",
"228",
"220",
"241",
"227",
"227",
"203",
"211",
"183",
"182",
"166",
"190",
"180",
"175",
"179",
"179",
"161",
"176",
"188",
"186",
"163",
"152",
"176",
"192",
"168",
"168",
"169",
"154",
"169",
"182",
"166",
"167",
"169",
"188",
"171",
"141",
"163",
"166",
"149",
"170",
"158",
"167",
"157",
"181",
"178",
"165",
"167",
"181",
"189",
"175",
"154",
"188",
"175",
"153",
"150",
"154",
"178",
"147",
"174",
"157",
"153",
"174",
"152",
"140",
"157",
"161",
"157",
"155",
"128",
"151",
"155",
"129",
"139",
"152",
"152",
"166",
"183",
"130",
"149",
"163",
"155",
"133",
"146",
"169",
"147",
"132",
"165",
"167",
"154",
"141",
"158",
"158",
"143",
"169",
"156",
"158",
"159",
"156",
"149",
"140",
"142",
"156",
"153",
"149",
"154",
"155",
"150",
"144",
"145",
"163",
"140",
"163",
"166",
"169",
"137",
"149",
"165",
"151",
"144",
"171",
"152",
"141",
"161",
"161",
"155",
"141",
"134",
"138",
"174",
"174",
"150",
"142",
"143",
"118",
"143",
"157",
"163",
"150",
"157",
"122",
"164",
"150",
"144",
"153",
"130",
"151",
"112",
"132",
"143",
"149",
"139",
"140",
"118",
"121",
"140",
"135",
"128",
"140",
"138",
"139",
"130",
"125",
"130",
"141",
"150",
"122",
"126",
"150",
"129",
"118",
"127",
"139",
"105",
"142",
"131",
"146",
"108",
"126",
"123",
"146",
"144",
"132",
"120",
"137",
"122",
"122",
"130",
"103",
"111",
"138",
"117",
"132",
"149",
"138",
"130",
"130",
"123",
"133",
"135",
"137",
"122",
"112",
"107",
"151",
"131",
"133",
"125",
"135",
"133",
"138",
"139",
"138",
"118",
"123",
"108",
"121",
"133",
"126",
"118",
"123",
"137",
"128",
"126",
"119",
"117",
"123",
"126",
"105",
"122",
"131",
"121",
"161",
"117",
"111",
"115",
"138",
"110",
"126",
"123",
"129",
"98",
"121",
"130",
"122",
"121",
"137",
"129",
"114",
"129",
"127",
"117",
"118",
"126",
"91",
"122",
"109",
"97",
"118",
"102",
"116",
"118",
"125",
"138",
"140",
"103",
"118",
"119",
"109",
"118",
"106",
"104",
"111",
"99",
"93",
"130",
"121",
"128",
"98",
"110",
"83",
"102",
"112",
"87",
"119",
"114",
"104",
"95",
"118",
"111",
"99",
"116",
"97",
"100",
"104",
"116",
"109",
"100",
"97",
"99",
"104",
"107",
"114",
"98",
"97",
"120",
"116",
"99",
"115",
"109",
"93",
"106",
"107",
"103",
"98",
"108",
"99",
"103",
"102",
"102",
"107",
"104",
"111",
"91",
"95",
"107",
"103",
"91",
"120",
"109",
"87",
"84",
"100",
"102",
"95",
"97",
"118",
"100",
"111",
"107",
"118",
"99",
"103",
"114",
"100",
"95",
"98",
"96",
"92",
"86",
"110",
"96",
"96",
"95",
"103",
"91",
"85",
"93",
"103",
"100",
"73",
"94",
"85",
"86",
"125",
"80",
"107",
"82",
"100",
"92",
"105",
"106",
"102",
"91",
"93",
"94",
"93",
"88",
"118",
"103",
"84",
"98",
"81",
"87",
"104",
"82",
"85",
"78",
"95",
"76",
"84",
"97",
"90",
"103",
"86",
"99",
"88",
"75",
"94",
"96",
"73",
"94",
"74",
"84",
"72",
"97",
"79",
"79",
"84",
"79",
"91",
"87",
"95",
"90",
"94",
"83",
"111",
"90",
"84",
"91",
"76",
"67",
"74",
"93",
"91",
"81",
"76",
"69",
"91",
"76",
"88",
"93",
"81",
"95",
"87",
"95",
"78",
"81",
"78",
"69",
"86",
"99",
"86",
"85",
"91",
"95",
"92",
"82",
"85",
"83",
"90",
"83",
"104",
"71",
"93",
"103",
"87",
"81",
"81",
"73",
"91",
"75",
"103",
"75",
"103",
"80",
"106",
"72",
"97",
"86",
"81",
"91",
"97",
"88",
"99",
"102",
"97",
"74",
"93",
"104",
"103",
"115",
"116",
"103",
"94",
"102",
"108",
"85",
"115",
"91",
"95",
"87",
"122",
"100",
"117",
"112",
"110",
"107",
"119",
"143",
"110",
"125",
"112",
"134",
"161",
"161",
"158",
"158",
"144",
"181",
"186",
"208",
"217",
"223",
"245",
"259",
"313",
"319",
"366",
"346",
"399",
"380",
"418",
"462",
"483",
"482",
"458",
"482",
"512",
"455",
"502",
"499",
"591",
"526",
"558",
"495",
"519",
"483",
"449",
"386",
"452",
"392",
"381",
"351",
"349",
"317",
"252",
"279",
"250",
"222",
"216",
"188",
"181",
"153",
"164",
"175",
"169",
"119",
"104",
"138",
"130",
"109",
"123",
"127",
"203",
"169",
"201",
"194",
"257",
"272",
"288",
"313",
"335",
"379",
"378",
"372",
"411",
"356",
"362",
"356",
"300",
"276",
"271",
"214",
"233",
"158",
"145",
"133",
"116",
"107",
"81",
"78",
"74",
"86",
"82",
"79",
"103421",
"Channel_info_start",
"Channel : Mg",
"Points : 0",
"Range : 0.000000 - 0.000000",
"Step : 0.010000",
"Channel_info_end",
"Channel_info_start",
"Channel : Al",
"Points : 0",
"Range : 0.000000 - 0.000000",
"Step : 0.010000",
"Channel_info_end",
"Channel_info_start",
"Channel : Si",
"Points : 0",
"Range : 0.000000 - 0.000000",
"Step : 0.010000",
"Channel_info_end",
"Channel_info_start",
"Channel : P ",
"Points : 0",
"Range : 0.000000 - 0.000000",
"Step : 0.010000",
"Channel_info_end",
"Channel_info_start",
"Channel : S ",
"Points : 0",
"Range : 0.000000 - 0.000000",
"Step : 0.010000",
"Channel_info_end",
"Channel_info_start",
"Channel : Cl",
"Points : 0",
"Range : 0.000000 - 0.000000",
"Step : 0.010000",
"Channel_info_end",
"Channel_info_start",
"Channel : K ",
"Points : 0",
"Range : 0.000000 - 0.000000",
"Step : 0.010000",
"Channel_info_end",
"Channel_info_start",
"Channel : Ca",
"Points : 0",
"Range : 0.000000 - 0.000000",
"Step : 0.010000",
"Channel_info_end",
"Channel_info_start",
"Channel : Ti",
"Points : 0",
"Range : 0.000000 - 0.000000",
"Step : 0.010000",
"Channel_info_end",
"Channel_info_start",
"Channel : V ",
"Points : 0",
"Range : 0.000000 - 0.000000",
"Step : 0.010000",
"Channel_info_end",
"Channel_info_start",
"Channel : Cr",
"Points : 0",
"Range : 0.000000 - 0.000000",
"Step : 0.010000",
"Channel_info_end",
"Channel_info_start",
"Channel : Mn",
"Points : 0",
"Range : 0.000000 - 0.000000",
"Step : 0.010000",
"Channel_info_end",
"Channel_info_start",
"Channel : Fe",
"Points : 0",
"Range : 0.000000 - 0.000000",
"Step : 0.010000",
"Channel_info_end",
"Channel_info_start",
"Channel : Cu",
"Points : 0",
"Range : 0.000000 - 0.000000",
"Step : 0.010000",
"Channel_info_end",
"Channel_info_start",
"Channel : Zn",
"Points : 0",
"Range : 0.000000 - 0.000000",
"Step : 0.010000",
"Channel_info_end",
"Channel_info_start",
"Channel : Sr",
"Points : 0",
"Range : 0.000000 - 0.000000",
"Step : 0.010000",
"Channel_info_end",
"Channel_info_start",
"Channel : Pb",
"Points : 0",
"Range : 0.000000 - 0.000000",
"Step : 0.010000",
"Channel_info_end",
"",
"Qualitative Result",
"--------------------------------------------------------------------------------",
"Element :  P , S , Te, Ca, Ru",
"",
"Peak List",
"--------------------------------------------------------------------------------",
"Channel               Line        keV     Net Int.(cps/uA)",
"--------------------------------------------------------------------------------",
"Na                    P Ka         2.01     0.051",
"                      S Ka         2.29     0.016",
"                      TeLL         3.32     0.104",
"                      CaKa         3.76     3.189",
"                      CaKb         4.04     0.446",
"                      TeLb1        4.04     1.582",
"                      TeLb2        4.30     0.358",
"                      TeLg1        4.56     0.177",
"                      TeLg2        4.82     0.120",
"                      RuKa        19.24     0.131",
"--------------------------------------------------------------------------------",
"",
"Quantitative Result",
"--------------------------------------------------------------------------------",
"Analyte               Result             Std.Dev. Proc.-Calc. Line Intensity(cps/uA)",
"--------------------------------------------------------------------------------",
"====[No. 1 Layer]====< Layer1               >===============================",
"Layer1                   0.000 ug/cm2    -------- Flux       -------- --------",