File: inputs/edxCalibration/edx_raw/2010/junho/Ti 15755.20100525210819.csv
"Sample    : Ti 15755",
"Operator  : luisf",
"Comment  : cubatao-g-policarbonato",
"Group     : kerr2007ag180cal_lt",
"Date       : 2010-05-25 21:04:06",
"",
"Mesurement Condition",
"------------------------------------------------------------------------------------",
"Instrument : 700HS2   Atmosphere : Vac.   Collimator : 10(mm)   Spin : No",
"------------------------------------------------------------------------------------",
"Analyte               TG kV   uA      FI Acq.(keV)  Anal.(keV)  Time(sec)     DT(%)",
"------------------------------------------------------------------------------------",
"Na                    Rh 50  312-Auto Al  0 - 20    0.8 - 1.2   Live -  179   15",
"",
"<Profile>",
"Channel_info_start",
"Channel : Na",
"Points : 2048",
"Range : 0.000000 - 20.48",
"Step : 0.010000",
"Channel_info_end",
"0",
"0",
"0",
"0",
"0",
"0",
"0",
"0",
"0",
"0",
"0",
"0",
"0",
"0",
"1",
"10",
"21",
"26",
"19",
"20",
"24",
"21",
"15",
"22",
"21",
"18",
"27",
"19",
"18",
"12",
"19",
"13",
"15",
"15",
"12",
"20",
"12",
"15",
"14",
"13",
"19",
"22",
"16",
"19",
"19",
"18",
"16",
"13",
"21",
"23",
"13",
"12",
"20",
"14",
"16",
"13",
"16",
"31",
"19",
"22",
"21",
"12",
"20",
"31",
"15",
"10",
"20",
"27",
"24",
"22",
"18",
"12",
"27",
"25",
"26",
"27",
"22",
"21",
"26",
"33",
"26",
"23",
"26",
"26",
"27",
"31",
"42",
"52",
"34",
"37",
"36",
"25",
"33",
"20",
"34",
"21",
"33",
"54",
"55",
"75",
"73",
"82",
"55",
"59",
"44",
"36",
"34",
"33",
"28",
"25",
"22",
"34",
"23",
"18",
"24",
"27",
"27",
"34",
"33",
"27",
"33",
"34",
"33",
"35",
"27",
"30",
"31",
"22",
"42",
"30",
"33",
"52",
"66",
"73",
"128",
"172",
"245",
"299",
"318",
"286",
"255",
"190",
"117",
"78",
"49",
"34",
"41",
"33",
"32",
"41",
"35",
"28",
"39",
"39",
"37",
"43",
"54",
"58",
"71",
"62",
"64",
"55",
"49",
"41",
"58",
"34",
"47",
"31",
"30",
"44",
"45",
"41",
"37",
"34",
"59",
"62",
"78",
"93",
"130",
"193",
"287",
"379",
"544",
"686",
"755",
"742",
"703",
"560",
"416",
"272",
"193",
"180",
"179",
"170",
"162",
"159",
"150",
"187",
"172",
"209",
"204",
"219",
"206",
"190",
"203",
"178",
"165",
"172",
"171",
"149",
"178",
"184",
"192",
"237",
"308",
"336",
"486",
"803",
"1613",
"3334",
"6793",
"11728",
"19027",
"26373",
"34185",
"36349",
"36555",
"31781",
"25236",
"17259",
"10992",
"5748",
"2809",
"1303",
"602",
"324",
"263",
"233",
"311",
"386",
"723",
"1129",
"1697",
"2531",
"3477",
"4082",
"4638",
"4500",
"4187",
"3221",
"2431",
"1529",
"975",
"453",
"286",
"144",
"78",
"50",
"71",
"59",
"49",
"47",
"35",
"53",
"56",
"55",
"45",
"56",
"72",
"64",
"65",
"66",
"60",
"62",
"49",
"68",
"47",
"48",
"62",
"48",
"55",
"54",
"50",
"59",
"76",
"62",
"62",
"69",
"82",
"56",
"61",
"82",
"73",
"65",
"71",
"76",
"82",
"72",
"96",
"71",
"81",
"70",
"76",
"70",
"83",
"94",
"79",
"64",
"112",
"87",
"95",
"98",
"87",
"78",
"110",
"111",
"115",
"101",
"122",
"108",
"147",
"121",
"115",
"111",
"99",
"94",
"90",
"113",
"102",
"102",
"99",
"98",
"96",
"94",
"114",
"88",
"115",
"101",
"94",
"107",
"107",
"105",
"111",
"96",
"111",
"101",
"95",
"102",
"110",
"100",
"99",
"108",
"111",
"112",
"113",
"95",
"112",
"89",
"88",
"92",
"77",
"93",
"111",
"112",
"96",
"111",
"98",
"99",
"89",
"85",
"88",
"110",
"99",
"100",
"107",
"99",
"117",
"101",
"113",
"100",
"99",
"112",
"115",
"102",
"98",
"103",
"100",
"117",
"122",
"98",
"113",
"92",
"100",
"103",
"118",
"119",
"137",
"130",
"150",
"136",
"134",
"140",
"153",
"117",
"145",
"142",
"168",
"105",
"107",
"132",
"117",
"111",
"106",
"105",
"134",
"108",
"138",
"133",
"144",
"126",
"157",
"146",
"145",
"137",
"167",
"128",
"130",
"141",
"155",
"153",
"159",
"196",
"157",
"149",
"160",
"139",
"144",
"129",
"128",
"124",
"134",
"119",
"135",
"121",
"132",
"129",
"102",
"144",
"144",
"147",
"170",
"149",
"127",
"149",
"144",
"145",
"105",
"126",
"135",
"108",
"124",
"106",
"108",
"126",
"90",
"95",
"118",
"118",
"93",
"110",
"117",
"125",
"133",
"119",
"124",
"110",
"108",
"132",
"114",
"113",
"140",
"107",
"114",
"111",
"104",
"99",
"114",
"119",
"106",
"87",
"121",
"108",
"103",
"99",
"106",
"114",
"127",
"110",
"110",
"130",
"105",
"108",
"94",
"110",
"107",
"93",
"115",
"92",
"106",
"88",
"119",
"104",
"85",
"94",
"91",
"102",
"121",
"95",
"115",
"104",
"84",
"118",
"96",
"103",
"102",
"102",
"118",
"94",
"118",
"114",
"128",
"105",
"105",
"115",
"130",
"103",
"119",
"90",
"112",
"112",
"116",
"102",
"117",
"104",
"114",
"96",
"90",
"92",
"119",
"118",
"124",
"125",
"107",
"111",
"137",
"129",
"106",
"105",
"127",
"107",
"103",
"115",
"112",
"113",
"90",
"110",
"115",
"88",
"87",
"102",
"122",
"116",
"123",
"110",
"99",
"118",
"98",
"73",
"116",
"99",
"87",
"91",
"90",
"85",
"94",
"106",
"95",
"100",
"106",
"95",
"110",
"91",
"118",
"88",
"105",
"115",
"104",
"95",
"102",
"90",
"121",
"85",
"80",
"98",
"104",
"89",
"96",
"112",
"95",
"90",
"85",
"94",
"103",
"87",
"99",
"91",
"94",
"87",
"90",
"85",
"106",
"88",
"104",
"94",
"84",
"81",
"91",
"96",
"102",
"92",
"103",
"103",
"88",
"93",
"85",
"82",
"76",
"92",
"83",
"106",
"95",
"85",
"93",
"92",
"102",
"96",
"88",
"91",
"89",
"93",
"70",
"93",
"99",
"107",
"89",
"96",
"80",
"77",
"94",
"100",
"81",
"96",
"95",
"82",
"100",
"88",
"73",
"98",
"90",
"101",
"96",
"101",
"88",
"82",
"96",
"89",
"103",
"93",
"84",
"87",
"76",
"99",
"91",
"94",
"80",
"87",
"85",
"84",
"84",
"77",
"77",
"103",
"81",
"72",
"81",
"69",
"71",
"89",
"75",
"87",
"79",
"91",
"76",
"90",
"84",
"72",
"73",
"91",
"89",
"75",
"87",
"81",
"90",
"81",
"85",
"96",
"68",
"77",
"85",
"76",
"89",
"71",
"69",
"78",
"72",
"72",
"82",
"81",
"75",
"80",
"99",
"72",
"77",
"81",
"78",
"65",
"84",
"62",
"93",
"65",
"81",
"100",
"75",
"89",
"76",
"79",
"89",
"72",
"93",
"80",
"69",
"84",
"80",
"65",
"77",
"85",
"81",
"67",
"80",
"84",
"87",
"91",
"78",
"75",
"83",
"69",
"84",
"76",
"75",
"71",
"77",
"72",
"83",
"64",
"68",
"79",
"66",
"79",
"71",
"79",
"76",
"85",
"55",
"65",
"68",
"57",
"73",
"71",
"76",
"60",
"79",
"79",
"67",
"66",
"87",
"71",
"84",
"70",
"62",
"62",
"84",
"68",
"67",
"70",
"78",
"52",
"56",
"54",
"65",
"70",
"75",
"65",
"73",
"58",
"67",
"65",
"64",
"71",
"69",
"57",
"70",
"66",
"70",
"55",
"71",
"58",
"60",
"82",
"66",
"50",
"85",
"70",
"56",
"52",
"72",
"66",
"69",
"70",
"65",
"59",
"61",
"68",
"67",
"56",
"70",
"62",
"79",
"59",
"57",
"54",
"66",
"66",
"67",
"67",
"68",
"81",
"60",
"60",
"64",
"68",
"65",
"65",
"59",
"66",
"65",
"72",
"52",
"71",
"76",
"57",
"65",
"59",
"85",
"62",
"66",
"67",
"66",
"66",
"65",
"71",
"58",
"71",
"68",
"65",
"72",
"69",
"71",
"59",
"59",
"58",
"59",
"67",
"66",
"65",
"62",
"78",
"87",
"62",
"77",
"60",
"77",
"76",
"68",
"73",
"77",
"67",
"78",
"75",
"59",
"69",
"75",
"68",
"70",
"75",
"88",
"91",
"91",
"81",
"75",
"75",
"79",
"77",
"80",
"69",
"90",
"78",
"80",
"111",
"99",
"107",
"106",
"112",
"116",
"134",
"140",
"147",
"138",
"159",
"148",
"191",
"178",
"216",
"241",
"194",
"258",
"278",
"289",
"261",
"317",
"306",
"347",
"345",
"403",
"414",
"455",
"450",
"445",
"411",
"469",
"480",
"498",
"429",
"471",
"426",
"446",
"442",
"434",
"402",
"377",
"344",
"340",
"307",
"276",
"289",
"276",
"210",
"197",
"195",
"168",
"168",
"152",
"132",
"133",
"107",
"113",
"111",
"104",
"117",
"93",
"107",
"95",
"92",
"119",
"125",
"123",
"136",
"156",
"162",
"164",
"183",
"208",
"202",
"195",
"215",
"252",
"220",
"178",
"134",
"181",
"162",
"159",
"128",
"138",
"105",
"100",
"73",
"66",
"67",
"75",
"76",
"50",
"50",
"52",
"58",
"31575",
"Channel_info_start",
"Channel : Mg",
"Points : 0",
"Range : 0.000000 - 0.000000",
"Step : 0.010000",
"Channel_info_end",
"Channel_info_start",
"Channel : Al",
"Points : 0",
"Range : 0.000000 - 0.000000",
"Step : 0.010000",
"Channel_info_end",
"Channel_info_start",
"Channel : Si",
"Points : 0",
"Range : 0.000000 - 0.000000",
"Step : 0.010000",
"Channel_info_end",
"Channel_info_start",
"Channel : P ",
"Points : 0",
"Range : 0.000000 - 0.000000",
"Step : 0.010000",
"Channel_info_end",
"Channel_info_start",
"Channel : S ",
"Points : 0",
"Range : 0.000000 - 0.000000",
"Step : 0.010000",
"Channel_info_end",
"Channel_info_start",
"Channel : Cl",
"Points : 0",
"Range : 0.000000 - 0.000000",
"Step : 0.010000",
"Channel_info_end",
"Channel_info_start",
"Channel : K ",
"Points : 0",
"Range : 0.000000 - 0.000000",
"Step : 0.010000",
"Channel_info_end",
"Channel_info_start",
"Channel : Ca",
"Points : 0",
"Range : 0.000000 - 0.000000",
"Step : 0.010000",
"Channel_info_end",
"Channel_info_start",
"Channel : Ti",
"Points : 0",
"Range : 0.000000 - 0.000000",
"Step : 0.010000",
"Channel_info_end",
"Channel_info_start",
"Channel : V ",
"Points : 0",
"Range : 0.000000 - 0.000000",
"Step : 0.010000",
"Channel_info_end",
"Channel_info_start",
"Channel : Cr",
"Points : 0",
"Range : 0.000000 - 0.000000",
"Step : 0.010000",
"Channel_info_end",
"Channel_info_start",
"Channel : Mn",
"Points : 0",
"Range : 0.000000 - 0.000000",
"Step : 0.010000",
"Channel_info_end",
"Channel_info_start",
"Channel : Fe",
"Points : 0",
"Range : 0.000000 - 0.000000",
"Step : 0.010000",
"Channel_info_end",
"Channel_info_start",
"Channel : Cu",
"Points : 0",
"Range : 0.000000 - 0.000000",
"Step : 0.010000",
"Channel_info_end",
"Channel_info_start",
"Channel : Zn",
"Points : 0",
"Range : 0.000000 - 0.000000",
"Step : 0.010000",
"Channel_info_end",
"Channel_info_start",
"Channel : Sr",
"Points : 0",
"Range : 0.000000 - 0.000000",
"Step : 0.010000",
"Channel_info_end",
"Channel_info_start",
"Channel : Pb",
"Points : 0",
"Range : 0.000000 - 0.000000",
"Step : 0.010000",
"Channel_info_end",
"",
"Qualitative Result",
"--------------------------------------------------------------------------------",
"Element :  P , Ti, Rh",
"",
"Peak List",
"--------------------------------------------------------------------------------",
"Channel               Line        keV     Net Int.(cps/uA)",
"--------------------------------------------------------------------------------",
"Na                    P Ka         2.01     0.014",
"                      TiKaESC      2.76     0.069",
"                      ----         3.68     0.178",
"                      TiKa         4.51     9.606",
"                      TiKb         4.92     1.214",
"                      RhKaC       19.20     0.140",
"                      ----        19.45     0.062",
"                      RhKa        20.07     0.065",
"--------------------------------------------------------------------------------",
"",
"Quantitative Result",
"--------------------------------------------------------------------------------",
"Analyte               Result             Std.Dev. Proc.-Calc. Line Intensity(cps/uA)",
"--------------------------------------------------------------------------------",
"====[No. 1 Layer]====< Layer1               >===============================",
"Layer1                   0.000 ug/cm2    -------- Flux       -------- --------",