File: inputs/edxCalibration/edx_raw/2010/junho/Ti 31498.20100525211218.csv
"Sample    : Ti 31498",
"Operator  : luisf",
"Comment  : cubatao-g-policarbonato",
"Group     : kerr2007ag180cal_lt",
"Date       : 2010-05-25 21:08:18",
"",
"Mesurement Condition",
"------------------------------------------------------------------------------------",
"Instrument : 700HS2   Atmosphere : Vac.   Collimator : 10(mm)   Spin : No",
"------------------------------------------------------------------------------------",
"Analyte               TG kV   uA      FI Acq.(keV)  Anal.(keV)  Time(sec)     DT(%)",
"------------------------------------------------------------------------------------",
"Na                    Rh 50  268-Auto Al  0 - 20    0.8 - 1.2   Live -  179   14",
"",
"<Profile>",
"Channel_info_start",
"Channel : Na",
"Points : 2048",
"Range : 0.000000 - 20.48",
"Step : 0.010000",
"Channel_info_end",
"0",
"0",
"0",
"0",
"0",
"0",
"0",
"0",
"0",
"0",
"0",
"0",
"0",
"0",
"1",
"5",
"14",
"17",
"21",
"13",
"22",
"17",
"15",
"11",
"10",
"13",
"26",
"10",
"16",
"18",
"21",
"21",
"17",
"16",
"13",
"16",
"11",
"11",
"12",
"15",
"18",
"10",
"16",
"13",
"11",
"18",
"26",
"11",
"13",
"11",
"20",
"26",
"33",
"23",
"17",
"16",
"15",
"11",
"22",
"17",
"22",
"18",
"18",
"16",
"17",
"12",
"5",
"22",
"22",
"15",
"22",
"20",
"21",
"15",
"26",
"28",
"26",
"28",
"18",
"13",
"20",
"13",
"23",
"17",
"24",
"21",
"31",
"35",
"21",
"42",
"29",
"17",
"24",
"24",
"21",
"37",
"43",
"66",
"66",
"93",
"105",
"77",
"93",
"63",
"62",
"35",
"39",
"23",
"22",
"22",
"24",
"13",
"16",
"18",
"27",
"30",
"28",
"18",
"28",
"26",
"24",
"25",
"21",
"23",
"23",
"34",
"34",
"28",
"30",
"27",
"34",
"39",
"55",
"63",
"105",
"160",
"206",
"253",
"314",
"267",
"217",
"157",
"92",
"72",
"49",
"29",
"18",
"37",
"30",
"31",
"33",
"23",
"25",
"23",
"47",
"47",
"34",
"62",
"69",
"56",
"55",
"38",
"54",
"40",
"38",
"34",
"28",
"47",
"38",
"43",
"30",
"37",
"38",
"49",
"44",
"54",
"69",
"80",
"128",
"201",
"337",
"500",
"791",
"965",
"1051",
"1126",
"986",
"783",
"573",
"299",
"246",
"166",
"130",
"148",
"141",
"134",
"163",
"189",
"195",
"246",
"247",
"242",
"216",
"198",
"198",
"143",
"144",
"122",
"172",
"141",
"161",
"155",
"196",
"225",
"224",
"277",
"415",
"768",
"1310",
"2719",
"5871",
"9983",
"16417",
"22415",
"29391",
"31608",
"32042",
"27820",
"21615",
"14749",
"9438",
"5136",
"2603",
"1159",
"526",
"281",
"237",
"204",
"246",
"379",
"576",
"985",
"1554",
"2255",
"2960",
"3597",
"4176",
"4000",
"3557",
"2792",
"2105",
"1383",
"851",
"455",
"255",
"112",
"72",
"46",
"54",
"49",
"38",
"48",
"41",
"41",
"46",
"46",
"53",
"37",
"55",
"42",
"59",
"66",
"56",
"51",
"50",
"56",
"44",
"52",
"60",
"55",
"39",
"35",
"49",
"41",
"60",
"46",
"61",
"52",
"62",
"62",
"59",
"60",
"69",
"68",
"62",
"75",
"72",
"68",
"77",
"72",
"83",
"90",
"66",
"63",
"66",
"70",
"79",
"88",
"79",
"68",
"74",
"85",
"77",
"83",
"82",
"81",
"94",
"82",
"109",
"100",
"117",
"102",
"115",
"99",
"95",
"105",
"106",
"102",
"83",
"103",
"96",
"98",
"95",
"79",
"82",
"79",
"104",
"91",
"99",
"100",
"77",
"99",
"93",
"81",
"99",
"77",
"80",
"82",
"104",
"94",
"88",
"83",
"78",
"78",
"96",
"73",
"98",
"67",
"81",
"77",
"86",
"86",
"95",
"72",
"92",
"66",
"83",
"83",
"83",
"74",
"80",
"82",
"90",
"87",
"78",
"86",
"83",
"82",
"83",
"85",
"91",
"75",
"96",
"96",
"108",
"86",
"86",
"93",
"79",
"85",
"95",
"88",
"92",
"92",
"93",
"91",
"114",
"108",
"109",
"134",
"114",
"131",
"106",
"141",
"109",
"95",
"116",
"104",
"101",
"87",
"76",
"80",
"111",
"114",
"100",
"92",
"87",
"93",
"92",
"89",
"117",
"89",
"122",
"100",
"103",
"105",
"117",
"126",
"152",
"157",
"153",
"129",
"165",
"155",
"129",
"119",
"115",
"119",
"120",
"99",
"93",
"107",
"107",
"114",
"92",
"104",
"98",
"117",
"137",
"138",
"138",
"125",
"128",
"118",
"142",
"120",
"113",
"101",
"104",
"98",
"93",
"88",
"81",
"86",
"94",
"81",
"100",
"86",
"90",
"102",
"91",
"80",
"104",
"90",
"127",
"100",
"104",
"111",
"91",
"99",
"112",
"96",
"105",
"100",
"106",
"111",
"75",
"88",
"93",
"88",
"91",
"80",
"76",
"83",
"88",
"73",
"96",
"93",
"88",
"90",
"83",
"80",
"81",
"77",
"91",
"87",
"91",
"81",
"112",
"85",
"107",
"95",
"96",
"79",
"95",
"94",
"77",
"89",
"92",
"73",
"69",
"92",
"80",
"81",
"87",
"101",
"94",
"81",
"80",
"112",
"85",
"74",
"93",
"77",
"83",
"89",
"86",
"82",
"102",
"80",
"78",
"83",
"88",
"80",
"88",
"86",
"88",
"73",
"82",
"87",
"90",
"81",
"88",
"88",
"76",
"86",
"73",
"85",
"66",
"86",
"82",
"79",
"82",
"95",
"93",
"77",
"76",
"80",
"81",
"95",
"82",
"103",
"102",
"88",
"75",
"73",
"66",
"104",
"94",
"105",
"88",
"72",
"78",
"73",
"79",
"96",
"79",
"95",
"90",
"75",
"82",
"77",
"88",
"74",
"93",
"73",
"100",
"108",
"87",
"93",
"82",
"77",
"83",
"87",
"81",
"79",
"76",
"65",
"92",
"74",
"80",
"82",
"87",
"64",
"91",
"79",
"80",
"72",
"73",
"76",
"64",
"83",
"74",
"76",
"70",
"69",
"74",
"64",
"60",
"63",
"72",
"77",
"85",
"81",
"78",
"82",
"43",
"76",
"64",
"85",
"73",
"83",
"75",
"65",
"76",
"85",
"80",
"77",
"77",
"81",
"78",
"65",
"62",
"67",
"76",
"69",
"66",
"64",
"86",
"72",
"80",
"61",
"68",
"50",
"86",
"78",
"78",
"81",
"59",
"70",
"59",
"59",
"99",
"76",
"80",
"68",
"69",
"67",
"73",
"52",
"63",
"86",
"83",
"82",
"82",
"68",
"72",
"73",
"72",
"78",
"103",
"86",
"98",
"67",
"75",
"74",
"72",
"70",
"73",
"81",
"76",
"98",
"78",
"72",
"68",
"60",
"76",
"61",
"76",
"55",
"72",
"66",
"56",
"64",
"70",
"67",
"69",
"54",
"61",
"63",
"67",
"69",
"63",
"70",
"75",
"65",
"53",
"62",
"68",
"68",
"72",
"53",
"75",
"79",
"66",
"68",
"67",
"54",
"74",
"59",
"70",
"69",
"69",
"61",
"60",
"70",
"56",
"59",
"81",
"67",
"68",
"64",
"53",
"66",
"61",
"63",
"70",
"66",
"54",
"76",
"70",
"56",
"73",
"66",
"64",
"56",
"65",
"66",
"64",
"60",
"59",
"47",
"62",
"81",
"75",
"52",
"51",
"63",
"75",
"55",
"65",
"79",
"50",
"57",
"53",
"68",
"69",
"55",
"51",
"61",
"50",
"60",
"67",
"72",
"63",
"52",
"62",
"63",
"56",
"60",
"57",
"57",
"46",
"69",
"67",
"61",
"65",
"60",
"63",
"52",
"59",
"62",
"52",
"76",
"65",
"54",
"62",
"65",
"65",
"70",
"40",
"54",
"78",
"66",
"50",
"54",
"51",
"55",
"47",
"62",
"49",
"43",
"47",
"52",
"74",
"64",
"52",
"53",
"66",
"56",
"44",
"51",
"52",
"54",
"61",
"54",
"74",
"63",
"57",
"62",
"73",
"66",
"50",
"62",
"67",
"63",
"55",
"61",
"65",
"62",
"57",
"50",
"56",
"55",
"72",
"68",
"57",
"51",
"55",
"52",
"53",
"60",
"50",
"54",
"57",
"55",
"57",
"53",
"63",
"60",
"42",
"54",
"46",
"38",
"70",
"43",
"56",
"54",
"60",
"49",
"46",
"55",
"62",
"60",
"52",
"68",
"57",
"52",
"51",
"56",
"62",
"59",
"55",
"60",
"63",
"59",
"68",
"70",
"59",
"65",
"77",
"56",
"51",
"75",
"77",
"67",
"78",
"60",
"87",
"75",
"57",
"92",
"69",
"88",
"76",
"77",
"88",
"89",
"75",
"76",
"78",
"91",
"90",
"95",
"111",
"118",
"102",
"122",
"127",
"154",
"181",
"148",
"166",
"186",
"220",
"245",
"231",
"244",
"308",
"306",
"349",
"325",
"326",
"341",
"370",
"336",
"379",
"393",
"404",
"392",
"411",
"370",
"374",
"358",
"397",
"357",
"350",
"285",
"275",
"282",
"293",
"257",
"232",
"198",
"221",
"185",
"188",
"158",
"166",
"138",
"118",
"125",
"117",
"94",
"107",
"90",
"82",
"83",
"81",
"60",
"95",
"89",
"93",
"98",
"103",
"95",
"146",
"106",
"179",
"171",
"154",
"163",
"190",
"184",
"201",
"176",
"168",
"167",
"153",
"133",
"141",
"99",
"119",
"76",
"88",
"65",
"68",
"59",
"51",
"52",
"53",
"50",
"60",
"48",
"26419",
"Channel_info_start",
"Channel : Mg",
"Points : 0",
"Range : 0.000000 - 0.000000",
"Step : 0.010000",
"Channel_info_end",
"Channel_info_start",
"Channel : Al",
"Points : 0",
"Range : 0.000000 - 0.000000",
"Step : 0.010000",
"Channel_info_end",
"Channel_info_start",
"Channel : Si",
"Points : 0",
"Range : 0.000000 - 0.000000",
"Step : 0.010000",
"Channel_info_end",
"Channel_info_start",
"Channel : P ",
"Points : 0",
"Range : 0.000000 - 0.000000",
"Step : 0.010000",
"Channel_info_end",
"Channel_info_start",
"Channel : S ",
"Points : 0",
"Range : 0.000000 - 0.000000",
"Step : 0.010000",
"Channel_info_end",
"Channel_info_start",
"Channel : Cl",
"Points : 0",
"Range : 0.000000 - 0.000000",
"Step : 0.010000",
"Channel_info_end",
"Channel_info_start",
"Channel : K ",
"Points : 0",
"Range : 0.000000 - 0.000000",
"Step : 0.010000",
"Channel_info_end",
"Channel_info_start",
"Channel : Ca",
"Points : 0",
"Range : 0.000000 - 0.000000",
"Step : 0.010000",
"Channel_info_end",
"Channel_info_start",
"Channel : Ti",
"Points : 0",
"Range : 0.000000 - 0.000000",
"Step : 0.010000",
"Channel_info_end",
"Channel_info_start",
"Channel : V ",
"Points : 0",
"Range : 0.000000 - 0.000000",
"Step : 0.010000",
"Channel_info_end",
"Channel_info_start",
"Channel : Cr",
"Points : 0",
"Range : 0.000000 - 0.000000",
"Step : 0.010000",
"Channel_info_end",
"Channel_info_start",
"Channel : Mn",
"Points : 0",
"Range : 0.000000 - 0.000000",
"Step : 0.010000",
"Channel_info_end",
"Channel_info_start",
"Channel : Fe",
"Points : 0",
"Range : 0.000000 - 0.000000",
"Step : 0.010000",
"Channel_info_end",
"Channel_info_start",
"Channel : Cu",
"Points : 0",
"Range : 0.000000 - 0.000000",
"Step : 0.010000",
"Channel_info_end",
"Channel_info_start",
"Channel : Zn",
"Points : 0",
"Range : 0.000000 - 0.000000",
"Step : 0.010000",
"Channel_info_end",
"Channel_info_start",
"Channel : Sr",
"Points : 0",
"Range : 0.000000 - 0.000000",
"Step : 0.010000",
"Channel_info_end",
"Channel_info_start",
"Channel : Pb",
"Points : 0",
"Range : 0.000000 - 0.000000",
"Step : 0.010000",
"Channel_info_end",
"",
"Qualitative Result",
"--------------------------------------------------------------------------------",
"Element :  P , Ti, Ca, Ru",
"",
"Peak List",
"--------------------------------------------------------------------------------",
"Channel               Line        keV     Net Int.(cps/uA)",
"--------------------------------------------------------------------------------",
"Na                    P Ka         2.00     0.022",
"                      TiKaESC      2.76     0.073",
"                      CaKa         3.69     0.298",
"                      CaKb         3.99     0.037",
"                      TiKa         4.51     9.787",
"                      TiKb         4.93     1.253",
"                      RuKa        19.17     0.136",
"                      ----        19.40     0.084",
"                      ----        20.00     0.048",
"--------------------------------------------------------------------------------",
"",
"Quantitative Result",
"--------------------------------------------------------------------------------",
"Analyte               Result             Std.Dev. Proc.-Calc. Line Intensity(cps/uA)",
"--------------------------------------------------------------------------------",
"====[No. 1 Layer]====< Layer1               >===============================",
"Layer1                   0.000 ug/cm2    -------- Flux       -------- --------",