File: inputs/edxCalibration/edx_raw/2010/junho/WO3 15769.20100526012157.csv
"Sample    : WO3 15769",
"Operator  : luisf",
"Comment  : cubatao-g-policarbonato",
"Group     : kerr2007ag180cal_lt",
"Date       : 2010-05-26 01:16:02",
"",
"Mesurement Condition",
"------------------------------------------------------------------------------------",
"Instrument : 700HS2   Atmosphere : Vac.   Collimator : 10(mm)   Spin : No",
"------------------------------------------------------------------------------------",
"Analyte               TG kV   uA      FI Acq.(keV)  Anal.(keV)  Time(sec)     DT(%)",
"------------------------------------------------------------------------------------",
"Na                    Rh 50  210-Auto Al  0 - 20    0.8 - 1.2   Live -  179   14",
"",
"<Profile>",
"Channel_info_start",
"Channel : Na",
"Points : 2048",
"Range : 0.000000 - 20.48",
"Step : 0.010000",
"Channel_info_end",
"0",
"0",
"0",
"0",
"0",
"0",
"0",
"0",
"0",
"0",
"0",
"0",
"0",
"0",
"0",
"17",
"31",
"25",
"19",
"19",
"23",
"25",
"31",
"28",
"29",
"14",
"32",
"26",
"19",
"23",
"23",
"24",
"18",
"23",
"24",
"18",
"16",
"16",
"15",
"25",
"15",
"21",
"21",
"19",
"17",
"15",
"18",
"18",
"11",
"13",
"24",
"24",
"26",
"23",
"22",
"21",
"24",
"17",
"23",
"21",
"25",
"21",
"23",
"26",
"30",
"48",
"88",
"136",
"206",
"188",
"240",
"190",
"164",
"109",
"69",
"89",
"84",
"71",
"73",
"93",
"101",
"125",
"158",
"216",
"377",
"606",
"1130",
"1844",
"2574",
"3148",
"3367",
"3267",
"2875",
"2126",
"1521",
"986",
"563",
"315",
"257",
"171",
"240",
"261",
"269",
"245",
"190",
"142",
"83",
"65",
"48",
"40",
"50",
"38",
"51",
"69",
"79",
"99",
"109",
"117",
"110",
"87",
"55",
"55",
"26",
"27",
"16",
"23",
"18",
"19",
"14",
"15",
"24",
"12",
"19",
"22",
"26",
"21",
"25",
"24",
"22",
"19",
"26",
"25",
"26",
"11",
"14",
"17",
"15",
"10",
"15",
"22",
"11",
"15",
"14",
"16",
"17",
"13",
"21",
"12",
"23",
"12",
"14",
"19",
"9",
"11",
"14",
"6",
"24",
"13",
"14",
"15",
"18",
"19",
"21",
"18",
"16",
"26",
"31",
"37",
"54",
"101",
"169",
"219",
"361",
"396",
"457",
"454",
"425",
"303",
"200",
"152",
"83",
"60",
"50",
"45",
"49",
"43",
"47",
"47",
"68",
"66",
"79",
"77",
"76",
"60",
"49",
"47",
"42",
"28",
"35",
"30",
"27",
"23",
"32",
"34",
"32",
"28",
"43",
"34",
"50",
"44",
"45",
"43",
"43",
"44",
"43",
"38",
"61",
"60",
"58",
"58",
"51",
"62",
"42",
"44",
"54",
"53",
"37",
"42",
"60",
"48",
"47",
"44",
"47",
"31",
"42",
"49",
"39",
"38",
"49",
"47",
"39",
"54",
"49",
"40",
"54",
"50",
"44",
"57",
"37",
"40",
"44",
"49",
"42",
"73",
"45",
"52",
"48",
"55",
"51",
"62",
"45",
"60",
"51",
"50",
"61",
"56",
"62",
"65",
"56",
"54",
"74",
"71",
"71",
"51",
"55",
"65",
"52",
"64",
"54",
"55",
"61",
"60",
"54",
"62",
"66",
"79",
"55",
"75",
"71",
"71",
"76",
"73",
"79",
"71",
"74",
"66",
"82",
"92",
"96",
"79",
"92",
"75",
"96",
"82",
"96",
"113",
"101",
"94",
"105",
"112",
"118",
"114",
"97",
"102",
"94",
"112",
"102",
"118",
"113",
"105",
"138",
"127",
"122",
"121",
"136",
"122",
"113",
"110",
"105",
"100",
"113",
"95",
"107",
"132",
"110",
"116",
"105",
"95",
"109",
"105",
"115",
"122",
"122",
"103",
"107",
"114",
"125",
"123",
"109",
"131",
"148",
"140",
"209",
"248",
"341",
"392",
"525",
"602",
"653",
"731",
"695",
"594",
"587",
"484",
"361",
"335",
"238",
"156",
"130",
"126",
"129",
"126",
"106",
"115",
"128",
"119",
"121",
"112",
"95",
"119",
"128",
"121",
"140",
"123",
"131",
"127",
"142",
"151",
"148",
"148",
"177",
"162",
"179",
"194",
"185",
"198",
"219",
"284",
"394",
"575",
"860",
"1435",
"2230",
"3337",
"4793",
"6326",
"8366",
"9910",
"11326",
"11683",
"11941",
"10794",
"9682",
"7657",
"5984",
"4269",
"2954",
"1856",
"1213",
"765",
"537",
"413",
"325",
"389",
"351",
"334",
"353",
"300",
"316",
"279",
"240",
"200",
"161",
"165",
"158",
"120",
"139",
"132",
"120",
"153",
"126",
"135",
"118",
"119",
"139",
"113",
"115",
"117",
"129",
"144",
"142",
"151",
"119",
"125",
"158",
"161",
"177",
"216",
"255",
"301",
"464",
"585",
"733",
"936",
"1299",
"1655",
"2252",
"2668",
"3491",
"4154",
"5311",
"5679",
"6203",
"6363",
"6612",
"6073",
"5626",
"4829",
"3994",
"3392",
"2994",
"2471",
"2489",
"2366",
"2359",
"2432",
"2559",
"2299",
"2364",
"2225",
"2052",
"1639",
"1444",
"1071",
"843",
"619",
"477",
"386",
"341",
"289",
"259",
"234",
"239",
"220",
"182",
"185",
"170",
"155",
"128",
"133",
"109",
"101",
"109",
"100",
"96",
"97",
"97",
"112",
"77",
"103",
"89",
"99",
"88",
"74",
"100",
"110",
"125",
"94",
"104",
"95",
"138",
"108",
"114",
"132",
"128",
"131",
"148",
"149",
"147",
"135",
"141",
"162",
"170",
"167",
"198",
"261",
"359",
"420",
"570",
"663",
"830",
"949",
"1019",
"1077",
"1115",
"1072",
"1059",
"946",
"801",
"678",
"534",
"460",
"412",
"307",
"352",
"308",
"296",
"400",
"394",
"443",
"412",
"461",
"466",
"444",
"406",
"376",
"352",
"303",
"277",
"223",
"192",
"167",
"128",
"113",
"113",
"96",
"134",
"108",
"143",
"140",
"152",
"135",
"152",
"112",
"170",
"116",
"128",
"113",
"123",
"80",
"78",
"77",
"71",
"76",
"76",
"64",
"81",
"67",
"75",
"78",
"69",
"64",
"83",
"79",
"81",
"83",
"77",
"86",
"77",
"84",
"79",
"69",
"82",
"68",
"83",
"66",
"81",
"55",
"80",
"69",
"78",
"93",
"92",
"78",
"76",
"67",
"66",
"80",
"80",
"76",
"76",
"75",
"69",
"77",
"78",
"81",
"76",
"91",
"69",
"79",
"81",
"71",
"84",
"60",
"68",
"64",
"79",
"84",
"91",
"74",
"78",
"81",
"81",
"69",
"77",
"73",
"64",
"81",
"64",
"78",
"77",
"68",
"67",
"66",
"67",
"73",
"66",
"65",
"77",
"69",
"73",
"71",
"56",
"76",
"54",
"70",
"75",
"76",
"78",
"78",
"68",
"60",
"76",
"70",
"70",
"76",
"61",
"69",
"79",
"65",
"71",
"56",
"71",
"51",
"71",
"71",
"81",
"66",
"73",
"71",
"71",
"56",
"58",
"53",
"78",
"58",
"53",
"74",
"56",
"60",
"60",
"65",
"78",
"44",
"68",
"57",
"62",
"60",
"66",
"53",
"64",
"66",
"65",
"56",
"66",
"70",
"61",
"71",
"71",
"62",
"63",
"71",
"64",
"52",
"62",
"56",
"71",
"56",
"58",
"66",
"66",
"53",
"66",
"68",
"62",
"56",
"61",
"60",
"66",
"63",
"67",
"73",
"64",
"51",
"67",
"58",
"58",
"57",
"51",
"62",
"56",
"50",
"71",
"43",
"62",
"76",
"55",
"55",
"64",
"56",
"61",
"54",
"61",
"47",
"57",
"55",
"64",
"60",
"56",
"48",
"54",
"54",
"67",
"55",
"53",
"62",
"57",
"50",
"61",
"52",
"60",
"47",
"48",
"45",
"51",
"49",
"57",
"47",
"64",
"49",
"52",
"50",
"65",
"61",
"62",
"53",
"53",
"54",
"40",
"44",
"73",
"65",
"60",
"48",
"69",
"66",
"56",
"54",
"65",
"53",
"61",
"57",
"66",
"50",
"52",
"66",
"55",
"66",
"44",
"36",
"60",
"67",
"60",
"55",
"45",
"44",
"55",
"51",
"55",
"51",
"62",
"50",
"51",
"54",
"49",
"50",
"58",
"54",
"66",
"55",
"48",
"66",
"47",
"53",
"55",
"49",
"55",
"47",
"40",
"50",
"53",
"60",
"38",
"48",
"51",
"58",
"51",
"39",
"58",
"40",
"56",
"70",
"51",
"58",
"51",
"71",
"70",
"44",
"49",
"75",
"68",
"67",
"47",
"69",
"58",
"58",
"68",
"67",
"70",
"74",
"55",
"69",
"52",
"49",
"63",
"78",
"66",
"78",
"91",
"78",
"62",
"78",
"54",
"60",
"68",
"84",
"76",
"70",
"78",
"89",
"86",
"77",
"87",
"94",
"97",
"90",
"104",
"140",
"88",
"103",
"120",
"155",
"139",
"136",
"175",
"162",
"182",
"183",
"230",
"216",
"239",
"247",
"305",
"290",
"290",
"296",
"292",
"303",
"308",
"304",
"360",
"315",
"320",
"292",
"303",
"284",
"291",
"257",
"290",
"233",
"252",
"221",
"213",
"208",
"178",
"160",
"141",
"117",
"117",
"122",
"125",
"101",
"94",
"75",
"93",
"75",
"82",
"76",
"83",
"80",
"91",
"93",
"120",
"99",
"121",
"123",
"142",
"160",
"151",
"184",
"197",
"216",
"246",
"226",
"240",
"243",
"230",
"220",
"209",
"186",
"180",
"152",
"116",
"108",
"99",
"81",
"78",
"60",
"50",
"65",
"39",
"39",
"54",
"51",
"23739",
"Channel_info_start",
"Channel : Mg",
"Points : 0",
"Range : 0.000000 - 0.000000",
"Step : 0.010000",
"Channel_info_end",
"Channel_info_start",
"Channel : Al",
"Points : 0",
"Range : 0.000000 - 0.000000",
"Step : 0.010000",
"Channel_info_end",
"Channel_info_start",
"Channel : Si",
"Points : 0",
"Range : 0.000000 - 0.000000",
"Step : 0.010000",
"Channel_info_end",
"Channel_info_start",
"Channel : P ",
"Points : 0",
"Range : 0.000000 - 0.000000",
"Step : 0.010000",
"Channel_info_end",
"Channel_info_start",
"Channel : S ",
"Points : 0",
"Range : 0.000000 - 0.000000",
"Step : 0.010000",
"Channel_info_end",
"Channel_info_start",
"Channel : Cl",
"Points : 0",
"Range : 0.000000 - 0.000000",
"Step : 0.010000",
"Channel_info_end",
"Channel_info_start",
"Channel : K ",
"Points : 0",
"Range : 0.000000 - 0.000000",
"Step : 0.010000",
"Channel_info_end",
"Channel_info_start",
"Channel : Ca",
"Points : 0",
"Range : 0.000000 - 0.000000",
"Step : 0.010000",
"Channel_info_end",
"Channel_info_start",
"Channel : Ti",
"Points : 0",
"Range : 0.000000 - 0.000000",
"Step : 0.010000",
"Channel_info_end",
"Channel_info_start",
"Channel : V ",
"Points : 0",
"Range : 0.000000 - 0.000000",
"Step : 0.010000",
"Channel_info_end",
"Channel_info_start",
"Channel : Cr",
"Points : 0",
"Range : 0.000000 - 0.000000",
"Step : 0.010000",
"Channel_info_end",
"Channel_info_start",
"Channel : Mn",
"Points : 0",
"Range : 0.000000 - 0.000000",
"Step : 0.010000",
"Channel_info_end",
"Channel_info_start",
"Channel : Fe",
"Points : 0",
"Range : 0.000000 - 0.000000",
"Step : 0.010000",
"Channel_info_end",
"Channel_info_start",
"Channel : Cu",
"Points : 0",
"Range : 0.000000 - 0.000000",
"Step : 0.010000",
"Channel_info_end",
"Channel_info_start",
"Channel : Zn",
"Points : 0",
"Range : 0.000000 - 0.000000",
"Step : 0.010000",
"Channel_info_end",
"Channel_info_start",
"Channel : Sr",
"Points : 0",
"Range : 0.000000 - 0.000000",
"Step : 0.010000",
"Channel_info_end",
"Channel_info_start",
"Channel : Pb",
"Points : 0",
"Range : 0.000000 - 0.000000",
"Step : 0.010000",
"Channel_info_end",
"",
"Qualitative Result",
"--------------------------------------------------------------------------------",
"Element :  Se, W , P , S , Ca, Yb, Ru",
"",
"Peak List",
"--------------------------------------------------------------------------------",
"Channel               Line        keV     Net Int.(cps/uA)",
"--------------------------------------------------------------------------------",
"Na                    SeLa         1.39     0.051",
"                      W Ma         1.80     1.067",
"                      P Ka         2.03     0.072",
"                      S Ka         2.34     0.028",
"                      CaKa         3.69     0.171",
"                      CaKb         4.00     0.022",
"                      W LL         7.38     0.166",
"                      YbLa         7.38     0.113",
"                      W La         8.40     4.592",
"                      YbLb1        8.40     0.955",
"                      YbLb2        8.75     0.065",
"                      W Lb1        9.67     2.960",
"                      W Lb2        9.96     0.996",
"                      W Lg1       11.28     0.522",
"                      W Lg2       11.64     0.177",
"                      RuKa        19.16     0.131",
"                      ----        19.40     0.082",
"                      ----        19.92     0.051",
"--------------------------------------------------------------------------------",
"",
"Quantitative Result",
"--------------------------------------------------------------------------------",
"Analyte               Result             Std.Dev. Proc.-Calc. Line Intensity(cps/uA)",
"--------------------------------------------------------------------------------",
"====[No. 1 Layer]====< Layer1               >===============================",
"Layer1                   0.000 ug/cm2    -------- Flux       -------- --------",