File: inputs/edxCalibration/edx_raw/2010/junho/Y6F3 31518.20100611035933.csv
"Sample    : Y6F3 31518",
"Operator  : Luís",
"Comment  : cubatao-g-policarbonato",
"Group     : kerr2007ag180cal_lt",
"Date       : 2010-06-11 03:55:31",
"",
"Mesurement Condition",
"------------------------------------------------------------------------------------",
"Instrument : 700HS2   Atmosphere : Vac.   Collimator : 10(mm)   Spin : No",
"------------------------------------------------------------------------------------",
"Analyte               TG kV   uA      FI Acq.(keV)  Anal.(keV)  Time(sec)     DT(%)",
"------------------------------------------------------------------------------------",
"Na                    Rh 50  237-Auto Al  0 - 20    0.8 - 1.2   Live -  179   14",
"",
"<Profile>",
"Channel_info_start",
"Channel : Na",
"Points : 2048",
"Range : 0.000000 - 20.48",
"Step : 0.010000",
"Channel_info_end",
"0",
"0",
"0",
"0",
"0",
"0",
"0",
"0",
"0",
"0",
"0",
"0",
"0",
"0",
"0",
"11",
"21",
"29",
"15",
"23",
"15",
"23",
"18",
"22",
"21",
"28",
"30",
"12",
"16",
"15",
"22",
"18",
"25",
"18",
"14",
"8",
"9",
"16",
"12",
"15",
"12",
"16",
"16",
"10",
"9",
"14",
"11",
"11",
"25",
"16",
"24",
"14",
"18",
"18",
"34",
"50",
"63",
"96",
"138",
"146",
"184",
"138",
"113",
"75",
"50",
"65",
"44",
"39",
"41",
"75",
"78",
"134",
"275",
"544",
"919",
"1417",
"2004",
"2176",
"2334",
"1908",
"1561",
"1021",
"658",
"341",
"242",
"218",
"214",
"222",
"232",
"242",
"194",
"169",
"114",
"62",
"63",
"62",
"103",
"83",
"126",
"131",
"159",
"145",
"99",
"93",
"50",
"43",
"47",
"18",
"16",
"34",
"29",
"17",
"26",
"16",
"21",
"26",
"20",
"15",
"20",
"31",
"15",
"24",
"17",
"23",
"14",
"14",
"18",
"8",
"13",
"12",
"12",
"18",
"16",
"13",
"21",
"21",
"22",
"23",
"23",
"23",
"22",
"21",
"21",
"24",
"24",
"12",
"17",
"9",
"27",
"17",
"13",
"12",
"10",
"18",
"16",
"15",
"16",
"28",
"14",
"26",
"13",
"21",
"20",
"17",
"25",
"17",
"18",
"18",
"23",
"13",
"16",
"17",
"18",
"22",
"36",
"24",
"33",
"53",
"96",
"194",
"284",
"420",
"550",
"749",
"840",
"864",
"715",
"544",
"397",
"253",
"132",
"70",
"56",
"52",
"55",
"53",
"75",
"83",
"80",
"124",
"159",
"164",
"125",
"116",
"86",
"52",
"51",
"34",
"34",
"25",
"36",
"37",
"25",
"34",
"39",
"50",
"31",
"42",
"55",
"54",
"50",
"41",
"54",
"59",
"66",
"53",
"80",
"63",
"67",
"68",
"69",
"76",
"53",
"53",
"65",
"59",
"65",
"42",
"56",
"52",
"57",
"47",
"63",
"54",
"56",
"60",
"55",
"47",
"55",
"46",
"52",
"46",
"47",
"51",
"52",
"55",
"51",
"50",
"59",
"53",
"50",
"50",
"50",
"47",
"67",
"53",
"62",
"47",
"59",
"53",
"74",
"60",
"54",
"61",
"59",
"47",
"61",
"66",
"63",
"77",
"75",
"78",
"83",
"93",
"101",
"83",
"92",
"87",
"59",
"91",
"81",
"62",
"93",
"73",
"65",
"96",
"68",
"82",
"82",
"91",
"76",
"111",
"104",
"74",
"94",
"98",
"90",
"85",
"78",
"103",
"91",
"102",
"99",
"112",
"114",
"104",
"124",
"116",
"145",
"183",
"202",
"272",
"314",
"427",
"565",
"621",
"653",
"671",
"719",
"596",
"545",
"452",
"351",
"242",
"235",
"173",
"173",
"138",
"138",
"115",
"146",
"113",
"136",
"119",
"145",
"139",
"153",
"145",
"146",
"137",
"151",
"139",
"173",
"169",
"152",
"147",
"202",
"216",
"236",
"319",
"430",
"717",
"1241",
"2054",
"3212",
"4570",
"6724",
"8474",
"10906",
"11796",
"12571",
"12358",
"11534",
"9495",
"7669",
"5595",
"3803",
"2571",
"1621",
"955",
"662",
"467",
"361",
"246",
"246",
"229",
"186",
"176",
"152",
"159",
"147",
"159",
"146",
"147",
"165",
"162",
"163",
"176",
"153",
"216",
"254",
"272",
"347",
"382",
"441",
"494",
"511",
"602",
"617",
"760",
"914",
"1218",
"1636",
"2268",
"2996",
"3929",
"5074",
"5805",
"6765",
"7130",
"7402",
"6837",
"6299",
"5406",
"4525",
"3633",
"3058",
"2348",
"2001",
"1611",
"1494",
"1416",
"1495",
"1570",
"1758",
"1945",
"2207",
"2141",
"2262",
"2104",
"1795",
"1450",
"1200",
"886",
"711",
"510",
"414",
"313",
"244",
"230",
"147",
"146",
"139",
"122",
"114",
"136",
"119",
"124",
"140",
"149",
"160",
"168",
"217",
"206",
"257",
"256",
"256",
"292",
"272",
"298",
"249",
"241",
"255",
"218",
"216",
"215",
"208",
"267",
"249",
"276",
"299",
"394",
"502",
"589",
"836",
"927",
"1138",
"1138",
"1273",
"1200",
"1187",
"1027",
"877",
"748",
"589",
"492",
"398",
"304",
"326",
"266",
"332",
"397",
"436",
"464",
"525",
"516",
"528",
"472",
"486",
"394",
"343",
"318",
"252",
"197",
"154",
"169",
"154",
"157",
"134",
"155",
"146",
"130",
"160",
"149",
"159",
"144",
"156",
"128",
"116",
"129",
"103",
"101",
"112",
"98",
"119",
"102",
"109",
"103",
"98",
"111",
"113",
"140",
"120",
"109",
"114",
"117",
"128",
"102",
"98",
"99",
"113",
"104",
"120",
"87",
"79",
"102",
"93",
"104",
"104",
"109",
"113",
"106",
"100",
"88",
"102",
"102",
"113",
"91",
"96",
"104",
"95",
"111",
"90",
"96",
"89",
"91",
"101",
"87",
"85",
"94",
"98",
"87",
"80",
"83",
"101",
"76",
"92",
"95",
"112",
"95",
"100",
"79",
"92",
"91",
"90",
"87",
"98",
"85",
"77",
"87",
"62",
"94",
"95",
"91",
"82",
"88",
"85",
"82",
"109",
"95",
"89",
"89",
"92",
"87",
"98",
"85",
"75",
"82",
"83",
"78",
"82",
"82",
"91",
"81",
"86",
"107",
"80",
"83",
"77",
"98",
"73",
"68",
"83",
"78",
"95",
"65",
"104",
"91",
"70",
"63",
"78",
"81",
"83",
"80",
"91",
"89",
"75",
"75",
"82",
"89",
"70",
"76",
"79",
"79",
"83",
"67",
"79",
"57",
"80",
"76",
"90",
"85",
"64",
"77",
"69",
"93",
"82",
"57",
"62",
"81",
"80",
"73",
"69",
"78",
"77",
"81",
"92",
"75",
"78",
"64",
"62",
"67",
"86",
"83",
"64",
"80",
"89",
"66",
"96",
"88",
"70",
"86",
"77",
"69",
"86",
"68",
"83",
"95",
"81",
"69",
"74",
"69",
"89",
"73",
"70",
"83",
"76",
"77",
"81",
"73",
"73",
"68",
"82",
"76",
"65",
"87",
"80",
"69",
"72",
"59",
"64",
"77",
"74",
"68",
"66",
"63",
"88",
"80",
"64",
"67",
"66",
"70",
"95",
"80",
"88",
"85",
"75",
"72",
"90",
"80",
"82",
"62",
"86",
"66",
"81",
"86",
"88",
"73",
"66",
"60",
"80",
"75",
"82",
"60",
"61",
"49",
"63",
"50",
"61",
"67",
"83",
"49",
"63",
"54",
"64",
"60",
"67",
"51",
"76",
"80",
"62",
"64",
"70",
"47",
"70",
"57",
"70",
"66",
"78",
"80",
"65",
"68",
"82",
"82",
"63",
"66",
"66",
"54",
"66",
"67",
"65",
"62",
"83",
"66",
"79",
"70",
"73",
"69",
"59",
"55",
"59",
"54",
"76",
"66",
"75",
"68",
"66",
"61",
"55",
"62",
"75",
"55",
"65",
"60",
"64",
"53",
"59",
"52",
"62",
"52",
"60",
"64",
"48",
"55",
"42",
"42",
"53",
"74",
"54",
"55",
"54",
"57",
"43",
"66",
"56",
"57",
"53",
"63",
"68",
"59",
"62",
"61",
"51",
"59",
"61",
"54",
"56",
"63",
"63",
"53",
"75",
"52",
"42",
"62",
"66",
"47",
"56",
"59",
"61",
"61",
"55",
"69",
"61",
"56",
"55",
"65",
"56",
"51",
"56",
"54",
"51",
"51",
"64",
"55",
"68",
"47",
"54",
"68",
"80",
"56",
"61",
"49",
"53",
"51",
"42",
"57",
"49",
"53",
"59",
"57",
"35",
"61",
"59",
"56",
"69",
"55",
"79",
"52",
"76",
"43",
"59",
"51",
"60",
"50",
"68",
"61",
"59",
"55",
"68",
"57",
"68",
"68",
"53",
"79",
"56",
"61",
"67",
"63",
"50",
"68",
"73",
"55",
"89",
"83",
"66",
"89",
"76",
"80",
"81",
"64",
"75",
"101",
"81",
"90",
"105",
"99",
"109",
"114",
"118",
"149",
"143",
"152",
"197",
"164",
"189",
"207",
"193",
"221",
"218",
"236",
"299",
"246",
"298",
"305",
"317",
"300",
"374",
"339",
"348",
"359",
"343",
"358",
"349",
"327",
"312",
"299",
"267",
"281",
"276",
"259",
"230",
"207",
"211",
"197",
"176",
"190",
"143",
"132",
"138",
"131",
"119",
"102",
"105",
"88",
"83",
"94",
"74",
"100",
"107",
"94",
"99",
"100",
"120",
"106",
"128",
"158",
"160",
"181",
"193",
"206",
"248",
"260",
"256",
"274",
"252",
"231",
"250",
"230",
"209",
"171",
"156",
"160",
"155",
"117",
"94",
"91",
"81",
"65",
"63",
"59",
"50",
"47",
"53",
"48",
"25819",
"Channel_info_start",
"Channel : Mg",
"Points : 0",
"Range : 0.000000 - 0.000000",
"Step : 0.010000",
"Channel_info_end",
"Channel_info_start",
"Channel : Al",
"Points : 0",
"Range : 0.000000 - 0.000000",
"Step : 0.010000",
"Channel_info_end",
"Channel_info_start",
"Channel : Si",
"Points : 0",
"Range : 0.000000 - 0.000000",
"Step : 0.010000",
"Channel_info_end",
"Channel_info_start",
"Channel : P ",
"Points : 0",
"Range : 0.000000 - 0.000000",
"Step : 0.010000",
"Channel_info_end",
"Channel_info_start",
"Channel : S ",
"Points : 0",
"Range : 0.000000 - 0.000000",
"Step : 0.010000",
"Channel_info_end",
"Channel_info_start",
"Channel : Cl",
"Points : 0",
"Range : 0.000000 - 0.000000",
"Step : 0.010000",
"Channel_info_end",
"Channel_info_start",
"Channel : K ",
"Points : 0",
"Range : 0.000000 - 0.000000",
"Step : 0.010000",
"Channel_info_end",
"Channel_info_start",
"Channel : Ca",
"Points : 0",
"Range : 0.000000 - 0.000000",
"Step : 0.010000",
"Channel_info_end",
"Channel_info_start",
"Channel : Ti",
"Points : 0",
"Range : 0.000000 - 0.000000",
"Step : 0.010000",
"Channel_info_end",
"Channel_info_start",
"Channel : V ",
"Points : 0",
"Range : 0.000000 - 0.000000",
"Step : 0.010000",
"Channel_info_end",
"Channel_info_start",
"Channel : Cr",
"Points : 0",
"Range : 0.000000 - 0.000000",
"Step : 0.010000",
"Channel_info_end",
"Channel_info_start",
"Channel : Mn",
"Points : 0",
"Range : 0.000000 - 0.000000",
"Step : 0.010000",
"Channel_info_end",
"Channel_info_start",
"Channel : Fe",
"Points : 0",
"Range : 0.000000 - 0.000000",
"Step : 0.010000",
"Channel_info_end",
"Channel_info_start",
"Channel : Cu",
"Points : 0",
"Range : 0.000000 - 0.000000",
"Step : 0.010000",
"Channel_info_end",
"Channel_info_start",
"Channel : Zn",
"Points : 0",
"Range : 0.000000 - 0.000000",
"Step : 0.010000",
"Channel_info_end",
"Channel_info_start",
"Channel : Sr",
"Points : 0",
"Range : 0.000000 - 0.000000",
"Step : 0.010000",
"Channel_info_end",
"Channel_info_start",
"Channel : Pb",
"Points : 0",
"Range : 0.000000 - 0.000000",
"Step : 0.010000",
"Channel_info_end",
"",
"Qualitative Result",
"--------------------------------------------------------------------------------",
"Element :  Mg, Yb, Ta, P , Ca, Dy, Ni, Cu, Ru",
"",
"Peak List",
"--------------------------------------------------------------------------------",
"Channel               Line        keV     Net Int.(cps/uA)",
"--------------------------------------------------------------------------------",
"Na                    MgKa         1.20     0.038",
"                      YbMa         1.55     0.605",
"                      TaMa         1.76     0.056",
"                      P Ka         2.00     0.034",
"                      CaKa         3.69     0.281",
"                      CaKb         4.02     0.041",
"                      YbLL         6.55     0.151",
"                      DyLa         6.55     0.082",
"                      DyLb1        7.25     0.046",
"                      NiKa         7.40     5.040",
"                      TaLa         8.08     0.070",
"                      YbLb4        8.27     0.706",
"                      YbLb1        8.40     2.908",
"                      YbLb2        8.75     0.798",
"                      CuKb         8.91     0.011",
"                      TaLb1        9.34     0.060",
"                      YbLg1        9.76     0.462",
"                      YbLg2       10.09     0.152",
"                      RuKa        19.15     0.130",
"                      ----        19.38     0.074",
"                      ----        19.92     0.046",
"--------------------------------------------------------------------------------",
"",
"Quantitative Result",
"--------------------------------------------------------------------------------",
"Analyte               Result             Std.Dev. Proc.-Calc. Line Intensity(cps/uA)",
"--------------------------------------------------------------------------------",
"====[No. 1 Layer]====< Layer1               >===============================",
"Layer1                  12.502 ug/cm2    -------- Flux       -------- --------",
"Mg                      12.502 ug/cm2    -------- ********** -------- --------",