File: inputs/edxCalibration/edx_raw/2010/junho/YF3 31506.20100525233733.csv
"Sample    : YF3 31506",
"Operator  : luisf",
"Comment  : cubatao-g-policarbonato",
"Group     : kerr2007ag180cal_lt",
"Date       : 2010-05-25 23:31:39",
"",
"Mesurement Condition",
"------------------------------------------------------------------------------------",
"Instrument : 700HS2   Atmosphere : Vac.   Collimator : 10(mm)   Spin : No",
"------------------------------------------------------------------------------------",
"Analyte               TG kV   uA      FI Acq.(keV)  Anal.(keV)  Time(sec)     DT(%)",
"------------------------------------------------------------------------------------",
"Na                    Rh 50  237-Auto Al  0 - 20    0.8 - 1.2   Live -  178   14",
"",
"<Profile>",
"Channel_info_start",
"Channel : Na",
"Points : 2048",
"Range : 0.000000 - 20.48",
"Step : 0.010000",
"Channel_info_end",
"0",
"0",
"0",
"0",
"0",
"0",
"0",
"0",
"0",
"0",
"0",
"0",
"0",
"0",
"0",
"16",
"43",
"25",
"32",
"33",
"34",
"35",
"31",
"31",
"30",
"30",
"40",
"44",
"29",
"38",
"34",
"56",
"33",
"45",
"40",
"43",
"34",
"30",
"35",
"45",
"37",
"34",
"29",
"23",
"27",
"39",
"25",
"32",
"20",
"26",
"26",
"24",
"18",
"28",
"29",
"19",
"20",
"19",
"27",
"24",
"26",
"26",
"26",
"25",
"16",
"26",
"19",
"27",
"20",
"23",
"20",
"24",
"20",
"24",
"41",
"33",
"37",
"56",
"57",
"69",
"71",
"83",
"128",
"166",
"200",
"150",
"238",
"220",
"220",
"204",
"233",
"310",
"425",
"795",
"1143",
"1468",
"1777",
"1836",
"1874",
"1584",
"1334",
"1133",
"886",
"632",
"460",
"291",
"219",
"126",
"78",
"58",
"45",
"32",
"39",
"45",
"35",
"26",
"37",
"32",
"38",
"34",
"32",
"23",
"25",
"28",
"18",
"15",
"23",
"14",
"15",
"19",
"14",
"15",
"17",
"20",
"16",
"18",
"17",
"18",
"14",
"15",
"23",
"21",
"12",
"17",
"16",
"23",
"21",
"18",
"24",
"15",
"19",
"20",
"21",
"15",
"13",
"9",
"11",
"18",
"15",
"16",
"17",
"16",
"16",
"19",
"20",
"23",
"16",
"27",
"14",
"21",
"28",
"18",
"20",
"25",
"23",
"25",
"40",
"56",
"88",
"154",
"240",
"416",
"584",
"760",
"850",
"887",
"777",
"591",
"406",
"263",
"128",
"103",
"66",
"51",
"30",
"51",
"74",
"67",
"98",
"119",
"120",
"130",
"135",
"107",
"92",
"59",
"40",
"33",
"34",
"33",
"33",
"29",
"28",
"23",
"27",
"35",
"30",
"42",
"42",
"39",
"40",
"33",
"40",
"54",
"42",
"34",
"55",
"40",
"51",
"58",
"63",
"54",
"58",
"58",
"57",
"46",
"42",
"41",
"56",
"37",
"49",
"29",
"35",
"48",
"37",
"31",
"47",
"46",
"34",
"37",
"43",
"35",
"35",
"28",
"43",
"34",
"33",
"26",
"33",
"34",
"40",
"45",
"41",
"40",
"43",
"45",
"56",
"60",
"57",
"41",
"55",
"47",
"47",
"37",
"68",
"48",
"53",
"39",
"46",
"37",
"40",
"55",
"44",
"58",
"49",
"52",
"47",
"51",
"47",
"64",
"61",
"46",
"51",
"54",
"58",
"60",
"67",
"70",
"60",
"71",
"64",
"76",
"76",
"70",
"70",
"71",
"69",
"77",
"70",
"76",
"75",
"63",
"75",
"85",
"59",
"81",
"72",
"83",
"88",
"81",
"102",
"97",
"77",
"111",
"77",
"95",
"84",
"77",
"98",
"91",
"86",
"77",
"91",
"75",
"88",
"82",
"100",
"83",
"110",
"82",
"86",
"70",
"99",
"86",
"84",
"107",
"119",
"92",
"96",
"83",
"94",
"83",
"105",
"92",
"96",
"89",
"80",
"80",
"87",
"64",
"88",
"83",
"76",
"92",
"90",
"95",
"70",
"76",
"87",
"94",
"99",
"73",
"90",
"92",
"95",
"68",
"99",
"97",
"113",
"78",
"104",
"84",
"82",
"91",
"111",
"106",
"74",
"75",
"94",
"71",
"97",
"84",
"110",
"97",
"103",
"105",
"103",
"103",
"128",
"107",
"137",
"138",
"139",
"137",
"150",
"129",
"135",
"98",
"127",
"118",
"96",
"96",
"104",
"81",
"80",
"102",
"100",
"91",
"80",
"78",
"89",
"89",
"71",
"82",
"102",
"106",
"119",
"116",
"129",
"116",
"139",
"139",
"139",
"147",
"114",
"124",
"149",
"94",
"84",
"106",
"107",
"103",
"96",
"90",
"91",
"87",
"99",
"83",
"121",
"114",
"88",
"69",
"96",
"97",
"84",
"83",
"88",
"95",
"101",
"104",
"101",
"72",
"90",
"96",
"95",
"90",
"97",
"88",
"102",
"89",
"103",
"104",
"78",
"90",
"97",
"103",
"90",
"90",
"109",
"97",
"91",
"87",
"110",
"94",
"98",
"90",
"89",
"78",
"95",
"74",
"89",
"69",
"84",
"82",
"66",
"88",
"71",
"90",
"74",
"81",
"98",
"82",
"82",
"82",
"92",
"86",
"78",
"88",
"81",
"83",
"97",
"74",
"90",
"74",
"95",
"96",
"83",
"77",
"88",
"103",
"83",
"86",
"75",
"75",
"83",
"92",
"84",
"85",
"82",
"106",
"75",
"96",
"96",
"90",
"96",
"70",
"105",
"86",
"105",
"80",
"88",
"90",
"89",
"90",
"101",
"72",
"96",
"82",
"80",
"88",
"76",
"92",
"66",
"84",
"92",
"76",
"87",
"73",
"85",
"72",
"82",
"72",
"86",
"84",
"80",
"66",
"73",
"77",
"87",
"71",
"96",
"76",
"95",
"71",
"85",
"73",
"75",
"85",
"58",
"89",
"63",
"76",
"74",
"75",
"78",
"84",
"76",
"83",
"90",
"84",
"74",
"69",
"74",
"70",
"77",
"71",
"73",
"68",
"76",
"78",
"72",
"71",
"75",
"69",
"76",
"70",
"78",
"78",
"78",
"66",
"82",
"70",
"73",
"58",
"76",
"66",
"74",
"82",
"68",
"85",
"77",
"62",
"92",
"94",
"86",
"69",
"78",
"69",
"63",
"76",
"76",
"70",
"67",
"68",
"81",
"88",
"82",
"83",
"78",
"60",
"88",
"74",
"77",
"72",
"75",
"78",
"81",
"71",
"72",
"64",
"60",
"63",
"72",
"68",
"75",
"95",
"66",
"67",
"75",
"84",
"96",
"80",
"85",
"72",
"63",
"64",
"69",
"76",
"75",
"55",
"74",
"80",
"84",
"75",
"69",
"71",
"60",
"70",
"68",
"83",
"55",
"66",
"72",
"80",
"82",
"76",
"67",
"60",
"62",
"84",
"55",
"64",
"76",
"73",
"81",
"90",
"81",
"71",
"78",
"74",
"78",
"82",
"67",
"60",
"67",
"72",
"74",
"73",
"82",
"78",
"67",
"66",
"82",
"84",
"77",
"91",
"90",
"91",
"105",
"88",
"100",
"89",
"106",
"97",
"127",
"110",
"131",
"158",
"168",
"196",
"296",
"432",
"606",
"920",
"1432",
"1829",
"2878",
"3580",
"4901",
"6112",
"7755",
"8977",
"10859",
"11612",
"12786",
"13220",
"13702",
"13400",
"12932",
"11514",
"10502",
"8649",
"7903",
"5747",
"4660",
"3429",
"2556",
"1665",
"1158",
"760",
"557",
"308",
"202",
"166",
"129",
"97",
"126",
"94",
"90",
"91",
"81",
"73",
"98",
"81",
"76",
"75",
"83",
"81",
"68",
"78",
"83",
"78",
"96",
"75",
"78",
"71",
"62",
"83",
"62",
"63",
"77",
"49",
"54",
"62",
"72",
"76",
"82",
"72",
"64",
"87",
"77",
"70",
"59",
"75",
"69",
"74",
"82",
"64",
"72",
"81",
"77",
"80",
"78",
"84",
"81",
"88",
"82",
"87",
"94",
"104",
"115",
"132",
"173",
"215",
"293",
"365",
"580",
"670",
"853",
"1116",
"1293",
"1491",
"1829",
"1886",
"2069",
"2117",
"2214",
"2040",
"2116",
"1871",
"1756",
"1518",
"1324",
"1170",
"1004",
"766",
"698",
"607",
"559",
"484",
"437",
"429",
"380",
"318",
"302",
"258",
"203",
"175",
"171",
"145",
"104",
"105",
"83",
"64",
"60",
"55",
"62",
"44",
"42",
"47",
"48",
"47",
"57",
"49",
"40",
"35",
"46",
"42",
"45",
"41",
"48",
"48",
"39",
"53",
"55",
"42",
"44",
"34",
"56",
"42",
"51",
"54",
"55",
"51",
"40",
"60",
"48",
"66",
"45",
"55",
"74",
"48",
"49",
"43",
"43",
"59",
"44",
"55",
"63",
"59",
"67",
"63",
"54",
"38",
"63",
"71",
"66",
"55",
"62",
"66",
"66",
"66",
"69",
"64",
"74",
"61",
"74",
"69",
"82",
"66",
"64",
"71",
"80",
"78",
"95",
"100",
"94",
"119",
"95",
"116",
"123",
"153",
"168",
"175",
"183",
"174",
"184",
"214",
"219",
"289",
"274",
"256",
"312",
"314",
"301",
"307",
"337",
"321",
"349",
"290",
"392",
"364",
"344",
"351",
"332",
"297",
"302",
"284",
"250",
"227",
"229",
"185",
"216",
"186",
"161",
"170",
"183",
"154",
"146",
"128",
"116",
"88",
"97",
"95",
"98",
"94",
"82",
"86",
"85",
"89",
"88",
"84",
"99",
"86",
"98",
"90",
"101",
"120",
"135",
"134",
"142",
"142",
"152",
"154",
"167",
"169",
"158",
"150",
"127",
"113",
"124",
"92",
"111",
"88",
"85",
"49",
"67",
"64",
"44",
"52",
"43",
"41",
"61",
"41",
"24800",
"Channel_info_start",
"Channel : Mg",
"Points : 0",
"Range : 0.000000 - 0.000000",
"Step : 0.010000",
"Channel_info_end",
"Channel_info_start",
"Channel : Al",
"Points : 0",
"Range : 0.000000 - 0.000000",
"Step : 0.010000",
"Channel_info_end",
"Channel_info_start",
"Channel : Si",
"Points : 0",
"Range : 0.000000 - 0.000000",
"Step : 0.010000",
"Channel_info_end",
"Channel_info_start",
"Channel : P ",
"Points : 0",
"Range : 0.000000 - 0.000000",
"Step : 0.010000",
"Channel_info_end",
"Channel_info_start",
"Channel : S ",
"Points : 0",
"Range : 0.000000 - 0.000000",
"Step : 0.010000",
"Channel_info_end",
"Channel_info_start",
"Channel : Cl",
"Points : 0",
"Range : 0.000000 - 0.000000",
"Step : 0.010000",
"Channel_info_end",
"Channel_info_start",
"Channel : K ",
"Points : 0",
"Range : 0.000000 - 0.000000",
"Step : 0.010000",
"Channel_info_end",
"Channel_info_start",
"Channel : Ca",
"Points : 0",
"Range : 0.000000 - 0.000000",
"Step : 0.010000",
"Channel_info_end",
"Channel_info_start",
"Channel : Ti",
"Points : 0",
"Range : 0.000000 - 0.000000",
"Step : 0.010000",
"Channel_info_end",
"Channel_info_start",
"Channel : V ",
"Points : 0",
"Range : 0.000000 - 0.000000",
"Step : 0.010000",
"Channel_info_end",
"Channel_info_start",
"Channel : Cr",
"Points : 0",
"Range : 0.000000 - 0.000000",
"Step : 0.010000",
"Channel_info_end",
"Channel_info_start",
"Channel : Mn",
"Points : 0",
"Range : 0.000000 - 0.000000",
"Step : 0.010000",
"Channel_info_end",
"Channel_info_start",
"Channel : Fe",
"Points : 0",
"Range : 0.000000 - 0.000000",
"Step : 0.010000",
"Channel_info_end",
"Channel_info_start",
"Channel : Cu",
"Points : 0",
"Range : 0.000000 - 0.000000",
"Step : 0.010000",
"Channel_info_end",
"Channel_info_start",
"Channel : Zn",
"Points : 0",
"Range : 0.000000 - 0.000000",
"Step : 0.010000",
"Channel_info_end",
"Channel_info_start",
"Channel : Sr",
"Points : 0",
"Range : 0.000000 - 0.000000",
"Step : 0.010000",
"Channel_info_end",
"Channel_info_start",
"Channel : Pb",
"Points : 0",
"Range : 0.000000 - 0.000000",
"Step : 0.010000",
"Channel_info_end",
"",
"Qualitative Result",
"--------------------------------------------------------------------------------",
"Element :  Si, Y , Ca, Ru",
"",
"Peak List",
"--------------------------------------------------------------------------------",
"Channel               Line        keV     Net Int.(cps/uA)",
"--------------------------------------------------------------------------------",
"Na                    SiKa         1.71     0.048",
"                      Y La         1.94     0.523",
"                      CaKa         3.69     0.292",
"                      CaKb         4.03     0.034",
"                      Y Ka        14.92     6.752",
"                      Y Kb        16.72     1.106",
"                      ----        17.06     0.115",
"                      RuKa        19.23     0.129",
"                      ----        19.44     0.067",
"                      ----        19.97     0.041",
"--------------------------------------------------------------------------------",
"",
"Quantitative Result",
"--------------------------------------------------------------------------------",
"Analyte               Result             Std.Dev. Proc.-Calc. Line Intensity(cps/uA)",
"--------------------------------------------------------------------------------",
"====[No. 1 Layer]====< Layer1               >===============================",
"Layer1                   0.000 ug/cm2    -------- Flux       -------- --------",