File: inputs/edxCalibration/edx_raw/2010/junho/ZnTe 31501.20100611011820.csv
"Sample    : ZnTe 31501",
"Operator  : Luís",
"Comment  : cubatao-g-policarbonato",
"Group     : kerr2007ag180cal_lt",
"Date       : 2010-06-11 01:14:16",
"",
"Mesurement Condition",
"------------------------------------------------------------------------------------",
"Instrument : 700HS2   Atmosphere : Vac.   Collimator : 10(mm)   Spin : No",
"------------------------------------------------------------------------------------",
"Analyte               TG kV   uA      FI Acq.(keV)  Anal.(keV)  Time(sec)     DT(%)",
"------------------------------------------------------------------------------------",
"Na                    Rh 50  237-Auto Al  0 - 20    0.8 - 1.2   Live -  180   15",
"",
"<Profile>",
"Channel_info_start",
"Channel : Na",
"Points : 2048",
"Range : 0.000000 - 20.48",
"Step : 0.010000",
"Channel_info_end",
"0",
"0",
"0",
"0",
"0",
"0",
"0",
"0",
"0",
"0",
"0",
"0",
"0",
"0",
"1",
"9",
"34",
"29",
"33",
"24",
"21",
"16",
"22",
"22",
"28",
"27",
"24",
"23",
"15",
"27",
"22",
"26",
"20",
"24",
"19",
"25",
"16",
"27",
"28",
"27",
"26",
"34",
"37",
"41",
"34",
"40",
"49",
"77",
"98",
"131",
"189",
"240",
"228",
"191",
"155",
"102",
"92",
"58",
"35",
"38",
"22",
"19",
"25",
"23",
"15",
"28",
"24",
"26",
"31",
"21",
"17",
"24",
"22",
"38",
"29",
"28",
"33",
"36",
"23",
"32",
"25",
"23",
"33",
"35",
"26",
"36",
"25",
"29",
"33",
"33",
"23",
"38",
"40",
"29",
"36",
"37",
"53",
"70",
"110",
"109",
"168",
"204",
"155",
"121",
"90",
"51",
"38",
"37",
"32",
"35",
"39",
"45",
"45",
"64",
"61",
"63",
"64",
"62",
"44",
"53",
"39",
"40",
"39",
"27",
"36",
"29",
"21",
"25",
"40",
"37",
"34",
"32",
"35",
"31",
"36",
"31",
"29",
"26",
"37",
"29",
"44",
"24",
"48",
"28",
"36",
"29",
"41",
"35",
"33",
"32",
"37",
"47",
"36",
"37",
"54",
"38",
"45",
"51",
"63",
"57",
"60",
"73",
"119",
"135",
"195",
"254",
"279",
"313",
"293",
"256",
"186",
"150",
"125",
"108",
"104",
"128",
"153",
"201",
"238",
"395",
"525",
"713",
"1190",
"1766",
"2689",
"3816",
"5241",
"6041",
"6778",
"6473",
"5625",
"4249",
"2861",
"1657",
"996",
"660",
"786",
"1059",
"1842",
"2632",
"3322",
"4064",
"4269",
"3885",
"3667",
"2963",
"2259",
"1725",
"1236",
"925",
"713",
"660",
"711",
"756",
"833",
"968",
"895",
"747",
"595",
"417",
"344",
"252",
"162",
"185",
"227",
"279",
"396",
"478",
"499",
"485",
"501",
"344",
"275",
"220",
"160",
"144",
"151",
"185",
"242",
"259",
"337",
"326",
"329",
"296",
"234",
"179",
"150",
"125",
"94",
"75",
"71",
"44",
"49",
"57",
"38",
"37",
"33",
"41",
"35",
"48",
"56",
"43",
"46",
"40",
"43",
"53",
"52",
"52",
"58",
"54",
"53",
"59",
"48",
"62",
"72",
"47",
"71",
"54",
"65",
"62",
"53",
"58",
"81",
"69",
"63",
"65",
"74",
"70",
"56",
"73",
"53",
"71",
"76",
"81",
"57",
"81",
"80",
"81",
"73",
"77",
"86",
"56",
"83",
"77",
"59",
"83",
"104",
"102",
"94",
"97",
"96",
"99",
"108",
"100",
"121",
"100",
"122",
"99",
"102",
"85",
"119",
"111",
"122",
"93",
"116",
"116",
"113",
"112",
"120",
"123",
"104",
"116",
"106",
"108",
"126",
"106",
"94",
"109",
"129",
"137",
"95",
"106",
"153",
"117",
"119",
"141",
"116",
"119",
"116",
"109",
"92",
"81",
"95",
"102",
"122",
"88",
"85",
"108",
"96",
"81",
"108",
"108",
"113",
"96",
"112",
"113",
"124",
"104",
"137",
"112",
"136",
"116",
"142",
"137",
"153",
"108",
"136",
"101",
"129",
"137",
"137",
"148",
"116",
"112",
"116",
"116",
"109",
"108",
"117",
"124",
"93",
"147",
"105",
"125",
"141",
"118",
"122",
"110",
"151",
"135",
"140",
"141",
"132",
"133",
"140",
"120",
"135",
"119",
"114",
"128",
"126",
"147",
"135",
"120",
"134",
"140",
"166",
"158",
"244",
"259",
"400",
"694",
"1186",
"1956",
"3250",
"4851",
"7258",
"9370",
"12683",
"14504",
"16389",
"16724",
"17076",
"14665",
"12909",
"9907",
"7486",
"5154",
"3466",
"2038",
"1226",
"719",
"425",
"282",
"207",
"157",
"129",
"119",
"157",
"125",
"121",
"128",
"111",
"121",
"148",
"126",
"128",
"138",
"116",
"123",
"141",
"166",
"154",
"158",
"169",
"155",
"187",
"222",
"293",
"326",
"495",
"632",
"881",
"1130",
"1433",
"1790",
"2125",
"2313",
"2256",
"2273",
"2167",
"1713",
"1463",
"1143",
"886",
"642",
"442",
"267",
"182",
"182",
"137",
"124",
"95",
"96",
"96",
"83",
"109",
"93",
"111",
"94",
"86",
"95",
"85",
"94",
"82",
"96",
"97",
"83",
"89",
"109",
"102",
"81",
"98",
"107",
"83",
"78",
"85",
"95",
"84",
"97",
"84",
"76",
"85",
"88",
"82",
"84",
"98",
"110",
"94",
"93",
"77",
"95",
"94",
"112",
"80",
"102",
"83",
"98",
"116",
"87",
"84",
"105",
"87",
"94",
"93",
"104",
"95",
"96",
"99",
"93",
"94",
"87",
"85",
"99",
"119",
"106",
"106",
"76",
"87",
"101",
"80",
"90",
"90",
"86",
"99",
"92",
"89",
"73",
"86",
"106",
"86",
"85",
"99",
"109",
"93",
"82",
"94",
"87",
"73",
"88",
"88",
"93",
"87",
"88",
"92",
"106",
"78",
"88",
"92",
"94",
"89",
"86",
"101",
"86",
"89",
"85",
"66",
"82",
"87",
"78",
"88",
"83",
"121",
"92",
"84",
"107",
"80",
"75",
"111",
"72",
"86",
"77",
"89",
"85",
"90",
"90",
"99",
"85",
"97",
"99",
"89",
"96",
"89",
"83",
"93",
"73",
"80",
"97",
"86",
"77",
"99",
"96",
"102",
"104",
"71",
"96",
"108",
"93",
"83",
"86",
"95",
"104",
"81",
"85",
"70",
"70",
"89",
"94",
"78",
"70",
"63",
"77",
"81",
"82",
"75",
"78",
"82",
"82",
"69",
"78",
"72",
"96",
"98",
"78",
"84",
"73",
"83",
"85",
"78",
"82",
"72",
"95",
"85",
"86",
"69",
"71",
"100",
"75",
"78",
"81",
"73",
"66",
"71",
"72",
"81",
"62",
"71",
"51",
"84",
"70",
"68",
"71",
"73",
"74",
"70",
"60",
"78",
"66",
"71",
"69",
"78",
"70",
"71",
"73",
"86",
"66",
"73",
"80",
"88",
"75",
"78",
"62",
"71",
"77",
"74",
"83",
"74",
"81",
"64",
"60",
"69",
"66",
"72",
"80",
"69",
"64",
"56",
"61",
"89",
"63",
"53",
"76",
"75",
"64",
"81",
"63",
"68",
"61",
"72",
"73",
"71",
"83",
"71",
"60",
"60",
"52",
"72",
"65",
"69",
"62",
"74",
"58",
"71",
"50",
"61",
"65",
"72",
"52",
"71",
"73",
"54",
"51",
"65",
"70",
"76",
"70",
"77",
"76",
"66",
"48",
"59",
"51",
"82",
"68",
"58",
"51",
"53",
"63",
"81",
"56",
"64",
"59",
"58",
"53",
"56",
"62",
"62",
"60",
"69",
"66",
"59",
"56",
"59",
"52",
"54",
"60",
"59",
"50",
"65",
"59",
"66",
"63",
"47",
"52",
"71",
"58",
"41",
"72",
"65",
"63",
"58",
"58",
"58",
"66",
"61",
"61",
"66",
"58",
"59",
"57",
"73",
"54",
"63",
"53",
"65",
"69",
"45",
"51",
"54",
"61",
"58",
"61",
"63",
"59",
"70",
"62",
"53",
"71",
"62",
"63",
"58",
"58",
"46",
"53",
"48",
"63",
"60",
"56",
"65",
"61",
"60",
"66",
"62",
"68",
"69",
"71",
"71",
"45",
"70",
"68",
"66",
"69",
"68",
"53",
"84",
"56",
"76",
"78",
"78",
"66",
"63",
"53",
"60",
"45",
"71",
"57",
"53",
"56",
"43",
"52",
"53",
"58",
"56",
"50",
"66",
"41",
"48",
"70",
"56",
"56",
"54",
"61",
"50",
"61",
"63",
"53",
"53",
"54",
"52",
"52",
"61",
"48",
"71",
"62",
"76",
"57",
"61",
"70",
"76",
"59",
"72",
"73",
"62",
"58",
"65",
"81",
"65",
"71",
"75",
"69",
"62",
"81",
"61",
"84",
"70",
"85",
"92",
"65",
"95",
"72",
"87",
"95",
"73",
"86",
"105",
"106",
"107",
"121",
"133",
"126",
"156",
"184",
"154",
"193",
"190",
"196",
"239",
"234",
"242",
"240",
"279",
"280",
"312",
"289",
"331",
"331",
"352",
"345",
"357",
"344",
"405",
"317",
"347",
"301",
"322",
"298",
"323",
"288",
"303",
"251",
"227",
"216",
"231",
"197",
"178",
"158",
"158",
"148",
"132",
"123",
"143",
"105",
"132",
"95",
"85",
"94",
"96",
"85",
"92",
"99",
"93",
"75",
"120",
"120",
"125",
"125",
"148",
"177",
"197",
"181",
"207",
"213",
"235",
"206",
"240",
"201",
"216",
"183",
"195",
"154",
"158",
"113",
"116",
"108",
"80",
"78",
"78",
"56",
"65",
"56",
"60",
"44",
"51",
"52",
"52922",
"Channel_info_start",
"Channel : Mg",
"Points : 0",
"Range : 0.000000 - 0.000000",
"Step : 0.010000",
"Channel_info_end",
"Channel_info_start",
"Channel : Al",
"Points : 0",
"Range : 0.000000 - 0.000000",
"Step : 0.010000",
"Channel_info_end",
"Channel_info_start",
"Channel : Si",
"Points : 0",
"Range : 0.000000 - 0.000000",
"Step : 0.010000",
"Channel_info_end",
"Channel_info_start",
"Channel : P ",
"Points : 0",
"Range : 0.000000 - 0.000000",
"Step : 0.010000",
"Channel_info_end",
"Channel_info_start",
"Channel : S ",
"Points : 0",
"Range : 0.000000 - 0.000000",
"Step : 0.010000",
"Channel_info_end",
"Channel_info_start",
"Channel : Cl",
"Points : 0",
"Range : 0.000000 - 0.000000",
"Step : 0.010000",
"Channel_info_end",
"Channel_info_start",
"Channel : K ",
"Points : 0",
"Range : 0.000000 - 0.000000",
"Step : 0.010000",
"Channel_info_end",
"Channel_info_start",
"Channel : Ca",
"Points : 0",
"Range : 0.000000 - 0.000000",
"Step : 0.010000",
"Channel_info_end",
"Channel_info_start",
"Channel : Ti",
"Points : 0",
"Range : 0.000000 - 0.000000",
"Step : 0.010000",
"Channel_info_end",
"Channel_info_start",
"Channel : V ",
"Points : 0",
"Range : 0.000000 - 0.000000",
"Step : 0.010000",
"Channel_info_end",
"Channel_info_start",
"Channel : Cr",
"Points : 0",
"Range : 0.000000 - 0.000000",
"Step : 0.010000",
"Channel_info_end",
"Channel_info_start",
"Channel : Mn",
"Points : 0",
"Range : 0.000000 - 0.000000",
"Step : 0.010000",
"Channel_info_end",
"Channel_info_start",
"Channel : Fe",
"Points : 0",
"Range : 0.000000 - 0.000000",
"Step : 0.010000",
"Channel_info_end",
"Channel_info_start",
"Channel : Cu",
"Points : 0",
"Range : 0.000000 - 0.000000",
"Step : 0.010000",
"Channel_info_end",
"Channel_info_start",
"Channel : Zn",
"Points : 0",
"Range : 0.000000 - 0.000000",
"Step : 0.010000",
"Channel_info_end",
"Channel_info_start",
"Channel : Sr",
"Points : 0",
"Range : 0.000000 - 0.000000",
"Step : 0.010000",
"Channel_info_end",
"Channel_info_start",
"Channel : Pb",
"Points : 0",
"Range : 0.000000 - 0.000000",
"Step : 0.010000",
"Channel_info_end",
"",
"Qualitative Result",
"--------------------------------------------------------------------------------",
"Element :  Zn, P , S , Te, K , Ca, Rh",
"",
"Peak List",
"--------------------------------------------------------------------------------",
"Channel               Line        keV     Net Int.(cps/uA)",
"--------------------------------------------------------------------------------",
"Na                    ZnLa         1.02     0.052",
"                      ZnLb1        1.03     0.015",
"                      P Ka         2.01     0.044",
"                      S Ka         2.30     0.014",
"                      TeLL         3.34     0.062",
"                      K Ka         3.34     0.013",
"                      CaKa         3.76     2.175",
"                      CaKb         4.04     0.304",
"                      TeLb1        4.04     1.051",
"                      TeLb2        4.30     0.242",
"                      TeLg1        4.56     0.111",
"                      TeLg2        4.83     0.076",
"                      ZnKa         8.63     6.864",
"                      ZnKb         9.54     0.936",
"                      RhKaC       19.13     0.133",
"                      ----        19.43     0.066",
"                      RhKa        20.06     0.081",
"--------------------------------------------------------------------------------",
"",
"Quantitative Result",
"--------------------------------------------------------------------------------",
"Analyte               Result             Std.Dev. Proc.-Calc. Line Intensity(cps/uA)",
"--------------------------------------------------------------------------------",
"====[No. 1 Layer]====< Layer1               >===============================",
"Layer1                   0.000 ug/cm2    -------- Flux       -------- --------",