File: inputs/edxCalibration/edx_raw/2010/junho/ZnTe 31501.20100525221400.csv
"Sample    : ZnTe 31501",
"Operator  : luisf",
"Comment  : cubatao-g-policarbonato",
"Group     : kerr2007ag180cal_lt",
"Date       : 2010-05-25 22:09:56",
"",
"Mesurement Condition",
"------------------------------------------------------------------------------------",
"Instrument : 700HS2   Atmosphere : Vac.   Collimator : 10(mm)   Spin : No",
"------------------------------------------------------------------------------------",
"Analyte               TG kV   uA      FI Acq.(keV)  Anal.(keV)  Time(sec)     DT(%)",
"------------------------------------------------------------------------------------",
"Na                    Rh 50  237-Auto Al  0 - 20    0.8 - 1.2   Live -  180   15",
"",
"<Profile>",
"Channel_info_start",
"Channel : Na",
"Points : 2048",
"Range : 0.000000 - 20.48",
"Step : 0.010000",
"Channel_info_end",
"0",
"0",
"0",
"0",
"0",
"0",
"0",
"0",
"0",
"0",
"0",
"0",
"0",
"0",
"0",
"24",
"27",
"24",
"38",
"32",
"28",
"25",
"19",
"25",
"21",
"26",
"22",
"21",
"21",
"26",
"21",
"24",
"25",
"20",
"15",
"31",
"15",
"22",
"21",
"23",
"32",
"44",
"35",
"40",
"45",
"38",
"41",
"63",
"89",
"167",
"206",
"230",
"235",
"193",
"152",
"119",
"73",
"53",
"26",
"28",
"31",
"31",
"44",
"29",
"31",
"33",
"21",
"25",
"22",
"35",
"31",
"21",
"17",
"27",
"38",
"38",
"36",
"36",
"35",
"24",
"32",
"22",
"24",
"32",
"39",
"33",
"34",
"33",
"28",
"36",
"37",
"34",
"31",
"33",
"40",
"41",
"48",
"68",
"99",
"125",
"183",
"138",
"142",
"130",
"90",
"63",
"43",
"41",
"41",
"32",
"32",
"45",
"46",
"62",
"48",
"49",
"75",
"58",
"45",
"39",
"29",
"39",
"22",
"38",
"41",
"33",
"38",
"36",
"31",
"34",
"32",
"32",
"32",
"29",
"28",
"38",
"35",
"25",
"27",
"21",
"32",
"40",
"45",
"36",
"39",
"33",
"32",
"43",
"24",
"41",
"28",
"40",
"43",
"38",
"51",
"48",
"52",
"52",
"41",
"59",
"69",
"94",
"102",
"144",
"214",
"257",
"311",
"308",
"312",
"217",
"187",
"170",
"121",
"117",
"106",
"113",
"145",
"154",
"253",
"351",
"511",
"777",
"1214",
"1670",
"2725",
"3729",
"5055",
"6014",
"6938",
"6383",
"5566",
"4274",
"2893",
"1760",
"1031",
"715",
"768",
"1163",
"1682",
"2520",
"3272",
"3887",
"4181",
"4070",
"3646",
"2949",
"2372",
"1807",
"1320",
"896",
"754",
"657",
"631",
"791",
"921",
"920",
"894",
"778",
"608",
"437",
"326",
"235",
"166",
"177",
"226",
"291",
"371",
"467",
"544",
"474",
"498",
"383",
"269",
"214",
"189",
"148",
"148",
"189",
"232",
"275",
"340",
"349",
"299",
"288",
"247",
"202",
"152",
"112",
"95",
"72",
"66",
"39",
"45",
"38",
"46",
"47",
"44",
"53",
"50",
"45",
"39",
"39",
"48",
"53",
"48",
"45",
"39",
"64",
"51",
"52",
"50",
"60",
"52",
"66",
"59",
"63",
"52",
"59",
"50",
"45",
"75",
"70",
"58",
"52",
"59",
"75",
"74",
"61",
"80",
"65",
"70",
"68",
"66",
"74",
"72",
"75",
"70",
"68",
"76",
"59",
"95",
"82",
"83",
"68",
"93",
"76",
"84",
"94",
"105",
"92",
"108",
"105",
"88",
"85",
"97",
"106",
"102",
"131",
"132",
"117",
"106",
"116",
"116",
"102",
"104",
"94",
"112",
"87",
"113",
"92",
"97",
"77",
"117",
"106",
"116",
"102",
"108",
"119",
"133",
"113",
"121",
"147",
"137",
"109",
"122",
"122",
"93",
"131",
"130",
"97",
"101",
"116",
"99",
"100",
"109",
"117",
"104",
"105",
"110",
"124",
"102",
"109",
"120",
"129",
"110",
"107",
"142",
"119",
"107",
"97",
"124",
"119",
"116",
"126",
"134",
"135",
"129",
"118",
"112",
"129",
"140",
"114",
"112",
"113",
"131",
"118",
"106",
"131",
"109",
"109",
"129",
"132",
"126",
"118",
"114",
"131",
"136",
"146",
"136",
"124",
"148",
"122",
"133",
"128",
"159",
"149",
"160",
"137",
"136",
"128",
"141",
"142",
"168",
"126",
"141",
"144",
"153",
"155",
"208",
"282",
"405",
"609",
"1122",
"1770",
"3024",
"4521",
"6921",
"9217",
"12235",
"14094",
"16228",
"16644",
"17134",
"14790",
"13146",
"10207",
"7886",
"5644",
"3692",
"2321",
"1432",
"819",
"445",
"298",
"189",
"136",
"169",
"150",
"133",
"95",
"117",
"120",
"141",
"125",
"131",
"142",
"112",
"129",
"133",
"148",
"144",
"147",
"152",
"137",
"159",
"169",
"204",
"223",
"260",
"346",
"425",
"642",
"862",
"1106",
"1498",
"1713",
"2046",
"2251",
"2391",
"2202",
"2193",
"1779",
"1529",
"1184",
"893",
"638",
"480",
"342",
"209",
"160",
"142",
"120",
"114",
"96",
"97",
"96",
"84",
"105",
"97",
"95",
"86",
"96",
"106",
"93",
"108",
"82",
"108",
"72",
"80",
"90",
"109",
"86",
"81",
"84",
"82",
"104",
"101",
"80",
"85",
"100",
"107",
"84",
"81",
"89",
"93",
"93",
"98",
"98",
"99",
"74",
"106",
"88",
"87",
"94",
"96",
"86",
"89",
"93",
"87",
"81",
"93",
"81",
"96",
"88",
"105",
"85",
"113",
"90",
"105",
"109",
"78",
"102",
"85",
"87",
"99",
"99",
"77",
"98",
"90",
"84",
"99",
"87",
"102",
"105",
"85",
"92",
"109",
"84",
"93",
"84",
"93",
"93",
"85",
"87",
"71",
"88",
"94",
"88",
"80",
"90",
"92",
"93",
"102",
"105",
"96",
"90",
"74",
"87",
"90",
"82",
"83",
"96",
"75",
"73",
"84",
"95",
"73",
"80",
"90",
"84",
"82",
"88",
"81",
"96",
"86",
"75",
"84",
"90",
"90",
"97",
"87",
"89",
"84",
"89",
"83",
"70",
"102",
"90",
"100",
"94",
"77",
"73",
"99",
"90",
"90",
"82",
"98",
"73",
"89",
"73",
"98",
"74",
"89",
"90",
"75",
"93",
"85",
"81",
"78",
"82",
"97",
"81",
"72",
"78",
"90",
"89",
"82",
"87",
"69",
"71",
"80",
"93",
"72",
"82",
"99",
"77",
"70",
"77",
"82",
"83",
"72",
"66",
"76",
"76",
"70",
"85",
"76",
"71",
"76",
"70",
"65",
"77",
"69",
"68",
"77",
"80",
"85",
"74",
"68",
"68",
"74",
"69",
"81",
"82",
"84",
"60",
"78",
"72",
"72",
"73",
"83",
"68",
"65",
"73",
"57",
"90",
"56",
"74",
"71",
"74",
"71",
"81",
"62",
"74",
"74",
"61",
"74",
"85",
"70",
"76",
"82",
"56",
"66",
"82",
"64",
"72",
"76",
"53",
"63",
"69",
"71",
"59",
"72",
"64",
"74",
"65",
"68",
"65",
"66",
"72",
"60",
"60",
"70",
"69",
"54",
"71",
"74",
"57",
"62",
"78",
"75",
"56",
"57",
"66",
"68",
"76",
"66",
"76",
"82",
"69",
"66",
"74",
"66",
"71",
"61",
"92",
"54",
"80",
"71",
"57",
"58",
"73",
"62",
"47",
"69",
"81",
"70",
"56",
"87",
"58",
"76",
"59",
"49",
"61",
"53",
"62",
"53",
"57",
"64",
"61",
"69",
"69",
"59",
"60",
"58",
"73",
"56",
"68",
"64",
"62",
"64",
"46",
"65",
"69",
"58",
"66",
"61",
"70",
"78",
"51",
"61",
"71",
"68",
"70",
"52",
"69",
"61",
"64",
"61",
"63",
"51",
"45",
"63",
"44",
"65",
"57",
"64",
"54",
"49",
"59",
"64",
"57",
"59",
"58",
"58",
"75",
"61",
"48",
"68",
"57",
"62",
"52",
"49",
"51",
"72",
"57",
"65",
"58",
"54",
"50",
"61",
"57",
"65",
"58",
"75",
"59",
"61",
"45",
"71",
"53",
"49",
"52",
"60",
"52",
"54",
"51",
"65",
"63",
"64",
"73",
"73",
"78",
"68",
"78",
"75",
"72",
"75",
"58",
"72",
"63",
"58",
"53",
"69",
"48",
"75",
"62",
"58",
"54",
"61",
"35",
"63",
"48",
"48",
"48",
"68",
"48",
"70",
"51",
"56",
"61",
"66",
"49",
"53",
"43",
"57",
"57",
"65",
"43",
"68",
"69",
"52",
"45",
"64",
"60",
"57",
"74",
"68",
"59",
"62",
"72",
"70",
"66",
"62",
"73",
"71",
"63",
"68",
"73",
"68",
"71",
"71",
"63",
"73",
"73",
"72",
"86",
"63",
"74",
"85",
"83",
"102",
"92",
"100",
"99",
"98",
"114",
"110",
"105",
"132",
"154",
"150",
"141",
"162",
"185",
"198",
"198",
"209",
"249",
"266",
"249",
"296",
"275",
"298",
"296",
"344",
"340",
"362",
"334",
"341",
"385",
"399",
"353",
"360",
"330",
"359",
"300",
"315",
"254",
"274",
"266",
"246",
"243",
"240",
"237",
"193",
"163",
"174",
"155",
"148",
"132",
"121",
"114",
"101",
"110",
"93",
"93",
"85",
"81",
"92",
"71",
"109",
"99",
"134",
"124",
"126",
"107",
"158",
"146",
"165",
"168",
"215",
"217",
"222",
"216",
"234",
"204",
"195",
"208",
"197",
"184",
"172",
"138",
"124",
"108",
"83",
"72",
"69",
"61",
"64",
"69",
"46",
"40",
"51",
"45",
"53268",
"Channel_info_start",
"Channel : Mg",
"Points : 0",
"Range : 0.000000 - 0.000000",
"Step : 0.010000",
"Channel_info_end",
"Channel_info_start",
"Channel : Al",
"Points : 0",
"Range : 0.000000 - 0.000000",
"Step : 0.010000",
"Channel_info_end",
"Channel_info_start",
"Channel : Si",
"Points : 0",
"Range : 0.000000 - 0.000000",
"Step : 0.010000",
"Channel_info_end",
"Channel_info_start",
"Channel : P ",
"Points : 0",
"Range : 0.000000 - 0.000000",
"Step : 0.010000",
"Channel_info_end",
"Channel_info_start",
"Channel : S ",
"Points : 0",
"Range : 0.000000 - 0.000000",
"Step : 0.010000",
"Channel_info_end",
"Channel_info_start",
"Channel : Cl",
"Points : 0",
"Range : 0.000000 - 0.000000",
"Step : 0.010000",
"Channel_info_end",
"Channel_info_start",
"Channel : K ",
"Points : 0",
"Range : 0.000000 - 0.000000",
"Step : 0.010000",
"Channel_info_end",
"Channel_info_start",
"Channel : Ca",
"Points : 0",
"Range : 0.000000 - 0.000000",
"Step : 0.010000",
"Channel_info_end",
"Channel_info_start",
"Channel : Ti",
"Points : 0",
"Range : 0.000000 - 0.000000",
"Step : 0.010000",
"Channel_info_end",
"Channel_info_start",
"Channel : V ",
"Points : 0",
"Range : 0.000000 - 0.000000",
"Step : 0.010000",
"Channel_info_end",
"Channel_info_start",
"Channel : Cr",
"Points : 0",
"Range : 0.000000 - 0.000000",
"Step : 0.010000",
"Channel_info_end",
"Channel_info_start",
"Channel : Mn",
"Points : 0",
"Range : 0.000000 - 0.000000",
"Step : 0.010000",
"Channel_info_end",
"Channel_info_start",
"Channel : Fe",
"Points : 0",
"Range : 0.000000 - 0.000000",
"Step : 0.010000",
"Channel_info_end",
"Channel_info_start",
"Channel : Cu",
"Points : 0",
"Range : 0.000000 - 0.000000",
"Step : 0.010000",
"Channel_info_end",
"Channel_info_start",
"Channel : Zn",
"Points : 0",
"Range : 0.000000 - 0.000000",
"Step : 0.010000",
"Channel_info_end",
"Channel_info_start",
"Channel : Sr",
"Points : 0",
"Range : 0.000000 - 0.000000",
"Step : 0.010000",
"Channel_info_end",
"Channel_info_start",
"Channel : Pb",
"Points : 0",
"Range : 0.000000 - 0.000000",
"Step : 0.010000",
"Channel_info_end",
"",
"Qualitative Result",
"--------------------------------------------------------------------------------",
"Element :  Zn, P , Te, K , Ca, Ru",
"",
"Peak List",
"--------------------------------------------------------------------------------",
"Channel               Line        keV     Net Int.(cps/uA)",
"--------------------------------------------------------------------------------",
"Na                    ZnLa         1.03     0.064",
"                      P Ka         2.00     0.038",
"                      TeLL         3.33     0.061",
"                      K Ka         3.33     0.013",
"                      CaKa         3.76     2.205",
"                      CaKb         4.04     0.309",
"                      TeLb1        4.04     1.045",
"                      TeLb2        4.30     0.234",
"                      TeLg1        4.56     0.117",
"                      TeLg2        4.82     0.081",
"                      ZnKa         8.63     6.930",
"                      ZnKb         9.56     0.967",
"                      RuKa        19.17     0.134",
"                      ----        19.45     0.069",
"                      ----        19.94     0.045",
"--------------------------------------------------------------------------------",
"",
"Quantitative Result",
"--------------------------------------------------------------------------------",
"Analyte               Result             Std.Dev. Proc.-Calc. Line Intensity(cps/uA)",
"--------------------------------------------------------------------------------",
"====[No. 1 Layer]====< Layer1               >===============================",
"Layer1                   0.000 ug/cm2    -------- Flux       -------- --------",