File: inputs/edxCalibration/edx_raw/2010/outubro/sio2-31493.20101117012440.csv
"Sample    : sio2-31493",
"Operator  : Americo",
"Comment  : cal 47,5",
"Group     : kerr2007ag180cal_lt",
"Date       : 2010-11-17 01:20:27",
"",
"Mesurement Condition",
"------------------------------------------------------------------------------------",
"Instrument : 700HS2   Atmosphere : Vac.   Collimator : 10(mm)   Spin : No",
"------------------------------------------------------------------------------------",
"Analyte               TG kV   uA      FI Acq.(keV)  Anal.(keV)  Time(sec)     DT(%)",
"------------------------------------------------------------------------------------",
"Na                    Rh 50  970-Auto Al  0 - 20    0.8 - 1.2   Live -  180   15",
"",
"<Profile>",
"Channel_info_start",
"Channel : Na",
"Points : 2048",
"Range : 0.000000 - 20.48",
"Step : 0.010000",
"Channel_info_end",
"0",
"0",
"0",
"0",
"0",
"0",
"0",
"0",
"0",
"0",
"0",
"0",
"0",
"0",
"0",
"17",
"40",
"44",
"52",
"46",
"47",
"48",
"32",
"42",
"53",
"38",
"52",
"52",
"53",
"37",
"46",
"57",
"37",
"42",
"48",
"41",
"56",
"48",
"39",
"46",
"50",
"37",
"46",
"38",
"37",
"35",
"48",
"41",
"42",
"36",
"50",
"45",
"29",
"42",
"47",
"60",
"45",
"50",
"54",
"34",
"46",
"50",
"40",
"41",
"46",
"53",
"66",
"52",
"50",
"55",
"57",
"62",
"71",
"59",
"74",
"78",
"104",
"97",
"119",
"120",
"150",
"266",
"668",
"1403",
"2744",
"4362",
"5805",
"6263",
"6011",
"5004",
"3618",
"2169",
"1243",
"617",
"368",
"225",
"168",
"194",
"226",
"239",
"284",
"244",
"243",
"182",
"124",
"101",
"73",
"46",
"44",
"43",
"38",
"33",
"28",
"41",
"22",
"30",
"31",
"46",
"27",
"20",
"26",
"34",
"30",
"34",
"30",
"25",
"20",
"34",
"22",
"21",
"40",
"36",
"39",
"51",
"35",
"49",
"43",
"40",
"44",
"40",
"39",
"49",
"54",
"39",
"53",
"42",
"49",
"44",
"42",
"43",
"36",
"45",
"39",
"43",
"45",
"39",
"48",
"41",
"39",
"56",
"51",
"47",
"70",
"58",
"38",
"52",
"47",
"40",
"54",
"52",
"51",
"63",
"57",
"42",
"60",
"81",
"115",
"185",
"355",
"574",
"1035",
"1553",
"2163",
"2701",
"3148",
"3169",
"2939",
"2339",
"1822",
"1163",
"702",
"422",
"256",
"174",
"204",
"197",
"220",
"327",
"361",
"397",
"440",
"422",
"451",
"360",
"330",
"233",
"183",
"124",
"93",
"96",
"69",
"66",
"89",
"87",
"78",
"81",
"131",
"101",
"111",
"119",
"112",
"148",
"130",
"149",
"154",
"144",
"167",
"174",
"168",
"184",
"173",
"142",
"178",
"139",
"157",
"151",
"142",
"149",
"159",
"142",
"147",
"113",
"127",
"120",
"125",
"100",
"116",
"144",
"113",
"129",
"112",
"123",
"137",
"121",
"92",
"139",
"137",
"135",
"133",
"138",
"117",
"156",
"151",
"136",
"136",
"161",
"155",
"148",
"145",
"126",
"148",
"157",
"142",
"138",
"154",
"143",
"166",
"153",
"152",
"162",
"152",
"161",
"168",
"159",
"190",
"162",
"195",
"189",
"166",
"185",
"193",
"173",
"177",
"182",
"195",
"205",
"213",
"204",
"219",
"201",
"208",
"173",
"223",
"213",
"227",
"229",
"243",
"230",
"248",
"226",
"253",
"252",
"238",
"224",
"254",
"256",
"280",
"258",
"299",
"310",
"327",
"288",
"302",
"307",
"302",
"259",
"264",
"284",
"292",
"290",
"257",
"276",
"298",
"272",
"265",
"286",
"286",
"294",
"293",
"305",
"286",
"282",
"284",
"276",
"302",
"272",
"301",
"280",
"311",
"305",
"290",
"297",
"309",
"290",
"293",
"297",
"312",
"279",
"300",
"296",
"279",
"288",
"286",
"278",
"327",
"285",
"300",
"276",
"305",
"287",
"310",
"271",
"279",
"266",
"328",
"290",
"288",
"304",
"276",
"296",
"280",
"289",
"294",
"311",
"316",
"294",
"281",
"268",
"328",
"321",
"328",
"328",
"327",
"301",
"323",
"312",
"326",
"360",
"336",
"390",
"402",
"368",
"384",
"372",
"360",
"374",
"325",
"332",
"331",
"325",
"323",
"300",
"305",
"307",
"298",
"306",
"314",
"319",
"317",
"300",
"301",
"293",
"331",
"301",
"356",
"363",
"411",
"409",
"436",
"459",
"473",
"505",
"506",
"441",
"463",
"421",
"416",
"366",
"383",
"312",
"325",
"304",
"339",
"296",
"309",
"313",
"333",
"283",
"331",
"297",
"299",
"308",
"310",
"290",
"299",
"286",
"280",
"280",
"299",
"291",
"359",
"300",
"266",
"310",
"316",
"297",
"287",
"327",
"290",
"282",
"331",
"285",
"330",
"306",
"330",
"328",
"362",
"311",
"305",
"273",
"303",
"337",
"301",
"323",
"304",
"316",
"317",
"284",
"290",
"291",
"300",
"271",
"334",
"294",
"303",
"278",
"324",
"291",
"257",
"291",
"290",
"304",
"313",
"307",
"273",
"306",
"332",
"291",
"295",
"301",
"275",
"276",
"290",
"285",
"286",
"290",
"291",
"321",
"300",
"301",
"292",
"291",
"335",
"278",
"327",
"300",
"279",
"259",
"290",
"297",
"305",
"329",
"282",
"273",
"284",
"301",
"274",
"278",
"262",
"272",
"286",
"305",
"305",
"305",
"282",
"262",
"274",
"269",
"323",
"264",
"289",
"288",
"261",
"265",
"281",
"274",
"303",
"274",
"288",
"265",
"333",
"276",
"259",
"263",
"258",
"271",
"296",
"270",
"258",
"272",
"288",
"268",
"275",
"261",
"283",
"281",
"286",
"296",
"295",
"291",
"278",
"251",
"277",
"280",
"284",
"257",
"286",
"261",
"273",
"284",
"252",
"274",
"252",
"288",
"264",
"245",
"252",
"269",
"291",
"289",
"250",
"244",
"268",
"245",
"281",
"274",
"261",
"213",
"275",
"244",
"243",
"282",
"298",
"253",
"270",
"231",
"289",
"224",
"267",
"275",
"292",
"252",
"273",
"272",
"284",
"243",
"275",
"231",
"230",
"255",
"230",
"255",
"237",
"258",
"241",
"255",
"261",
"244",
"263",
"242",
"251",
"257",
"248",
"257",
"277",
"212",
"238",
"251",
"251",
"241",
"285",
"260",
"295",
"271",
"253",
"239",
"218",
"232",
"252",
"250",
"245",
"267",
"241",
"279",
"262",
"232",
"239",
"241",
"256",
"245",
"273",
"222",
"256",
"234",
"225",
"257",
"286",
"225",
"238",
"209",
"242",
"212",
"228",
"235",
"237",
"227",
"254",
"235",
"260",
"245",
"225",
"216",
"230",
"246",
"243",
"226",
"256",
"224",
"227",
"219",
"233",
"249",
"231",
"243",
"225",
"229",
"252",
"211",
"222",
"215",
"228",
"245",
"231",
"209",
"250",
"246",
"231",
"231",
"211",
"214",
"248",
"182",
"255",
"235",
"204",
"249",
"260",
"216",
"213",
"236",
"217",
"233",
"222",
"233",
"206",
"216",
"232",
"204",
"201",
"193",
"238",
"203",
"207",
"197",
"226",
"215",
"237",
"217",
"212",
"190",
"221",
"239",
"239",
"203",
"207",
"232",
"204",
"201",
"207",
"197",
"214",
"230",
"204",
"228",
"232",
"201",
"200",
"198",
"230",
"199",
"213",
"214",
"225",
"198",
"208",
"188",
"198",
"204",
"215",
"211",
"214",
"215",
"226",
"197",
"212",
"201",
"227",
"178",
"182",
"189",
"202",
"210",
"191",
"202",
"204",
"194",
"233",
"196",
"214",
"190",
"194",
"203",
"190",
"186",
"185",
"207",
"211",
"166",
"230",
"180",
"204",
"175",
"214",
"175",
"223",
"186",
"205",
"193",
"208",
"183",
"200",
"176",
"167",
"166",
"210",
"184",
"201",
"183",
"189",
"201",
"195",
"186",
"186",
"155",
"187",
"198",
"209",
"212",
"181",
"191",
"212",
"191",
"209",
"193",
"159",
"187",
"175",
"164",
"177",
"157",
"212",
"176",
"184",
"185",
"183",
"172",
"211",
"152",
"199",
"181",
"176",
"189",
"150",
"184",
"210",
"193",
"172",
"186",
"192",
"172",
"204",
"189",
"181",
"178",
"159",
"198",
"199",
"165",
"188",
"202",
"208",
"184",
"190",
"203",
"211",
"188",
"223",
"178",
"210",
"207",
"194",
"172",
"200",
"198",
"208",
"216",
"209",
"186",
"213",
"202",
"229",
"183",
"191",
"198",
"209",
"224",
"201",
"230",
"212",
"212",
"216",
"216",
"226",
"216",
"219",
"197",
"250",
"207",
"201",
"253",
"217",
"225",
"253",
"249",
"275",
"239",
"282",
"295",
"328",
"286",
"332",
"317",
"323",
"398",
"384",
"445",
"431",
"442",
"537",
"553",
"597",
"604",
"680",
"663",
"770",
"781",
"951",
"896",
"982",
"1064",
"1066",
"1155",
"1219",
"1208",
"1282",
"1340",
"1415",
"1285",
"1424",
"1319",
"1448",
"1371",
"1270",
"1264",
"1262",
"1135",
"1097",
"1031",
"1039",
"933",
"909",
"791",
"856",
"689",
"718",
"603",
"557",
"468",
"481",
"468",
"422",
"358",
"376",
"338",
"325",
"300",
"290",
"300",
"273",
"267",
"300",
"262",
"335",
"312",
"324",
"353",
"374",
"411",
"430",
"482",
"489",
"459",
"532",
"506",
"575",
"519",
"512",
"460",
"474",
"406",
"448",
"343",
"338",
"262",
"291",
"236",
"222",
"192",
"186",
"177",
"168",
"163",
"159",
"155",
"91264",
"Channel_info_start",
"Channel : Mg",
"Points : 0",
"Range : 0.000000 - 0.000000",
"Step : 0.010000",
"Channel_info_end",
"Channel_info_start",
"Channel : Al",
"Points : 0",
"Range : 0.000000 - 0.000000",
"Step : 0.010000",
"Channel_info_end",
"Channel_info_start",
"Channel : Si",
"Points : 0",
"Range : 0.000000 - 0.000000",
"Step : 0.010000",
"Channel_info_end",
"Channel_info_start",
"Channel : P ",
"Points : 0",
"Range : 0.000000 - 0.000000",
"Step : 0.010000",
"Channel_info_end",
"Channel_info_start",
"Channel : S ",
"Points : 0",
"Range : 0.000000 - 0.000000",
"Step : 0.010000",
"Channel_info_end",
"Channel_info_start",
"Channel : Cl",
"Points : 0",
"Range : 0.000000 - 0.000000",
"Step : 0.010000",
"Channel_info_end",
"Channel_info_start",
"Channel : K ",
"Points : 0",
"Range : 0.000000 - 0.000000",
"Step : 0.010000",
"Channel_info_end",
"Channel_info_start",
"Channel : Ca",
"Points : 0",
"Range : 0.000000 - 0.000000",
"Step : 0.010000",
"Channel_info_end",
"Channel_info_start",
"Channel : Ti",
"Points : 0",
"Range : 0.000000 - 0.000000",
"Step : 0.010000",
"Channel_info_end",
"Channel_info_start",
"Channel : V ",
"Points : 0",
"Range : 0.000000 - 0.000000",
"Step : 0.010000",
"Channel_info_end",
"Channel_info_start",
"Channel : Cr",
"Points : 0",
"Range : 0.000000 - 0.000000",
"Step : 0.010000",
"Channel_info_end",
"Channel_info_start",
"Channel : Mn",
"Points : 0",
"Range : 0.000000 - 0.000000",
"Step : 0.010000",
"Channel_info_end",
"Channel_info_start",
"Channel : Fe",
"Points : 0",
"Range : 0.000000 - 0.000000",
"Step : 0.010000",
"Channel_info_end",
"Channel_info_start",
"Channel : Cu",
"Points : 0",
"Range : 0.000000 - 0.000000",
"Step : 0.010000",
"Channel_info_end",
"Channel_info_start",
"Channel : Zn",
"Points : 0",
"Range : 0.000000 - 0.000000",
"Step : 0.010000",
"Channel_info_end",
"Channel_info_start",
"Channel : Sr",
"Points : 0",
"Range : 0.000000 - 0.000000",
"Step : 0.010000",
"Channel_info_end",
"Channel_info_start",
"Channel : Pb",
"Points : 0",
"Range : 0.000000 - 0.000000",
"Step : 0.010000",
"Channel_info_end",
"",
"Qualitative Result",
"--------------------------------------------------------------------------------",
"Element :  Si, P , Ca, Ti, Ru",
"",
"Peak List",
"--------------------------------------------------------------------------------",
"Channel               Line        keV     Net Int.(cps/uA)",
"--------------------------------------------------------------------------------",
"Na                    SiKa         1.74     0.427",
"                      P Ka         2.00     0.017",
"                      CaKa         3.70     0.259",
"                      CaKb         4.02     0.031",
"                      TiKa         4.57     0.008",
"                      ----         8.62     0.021",
"                      RuKa        19.21     0.129",
"                      ----        19.48     0.042",
"                      ----        19.98     0.029",
"--------------------------------------------------------------------------------",
"",
"Quantitative Result",
"--------------------------------------------------------------------------------",
"Analyte               Result             Std.Dev. Proc.-Calc. Line Intensity(cps/uA)",
"--------------------------------------------------------------------------------",
"====[No. 1 Layer]====< Layer1               >===============================",
"Layer1                   0.000 ug/cm2    -------- Flux       -------- --------",