File: inputs/edxCalibration/edx_raw/2010-06/15766 CdSe.20100626141246.csv
"Sample    : 15766 CdSe",
"Operator  : thiago",
"Comment  : cubatao-g-policarbonato",
"Group     : kerr2007ag180cal_lt",
"Date       : 2010-06-26 14:08:44",
"",
"Mesurement Condition",
"------------------------------------------------------------------------------------",
"Instrument : 700HS2   Atmosphere : Vac.   Collimator : 10(mm)   Spin : No",
"------------------------------------------------------------------------------------",
"Analyte               TG kV   uA      FI Acq.(keV)  Anal.(keV)  Time(sec)     DT(%)",
"------------------------------------------------------------------------------------",
"Na                    Rh 50  237-Auto Al  0 - 20    0.8 - 1.2   Live -  179   14",
"",
"<Profile>",
"Channel_info_start",
"Channel : Na",
"Points : 2048",
"Range : 0.000000 - 20.48",
"Step : 0.010000",
"Channel_info_end",
"0",
"0",
"0",
"0",
"0",
"0",
"0",
"0",
"0",
"0",
"0",
"0",
"0",
"0",
"0",
"10",
"38",
"31",
"26",
"35",
"28",
"23",
"37",
"36",
"23",
"38",
"25",
"25",
"25",
"29",
"22",
"26",
"21",
"25",
"27",
"16",
"21",
"18",
"29",
"17",
"29",
"22",
"16",
"29",
"35",
"16",
"27",
"32",
"38",
"32",
"18",
"27",
"36",
"28",
"30",
"29",
"25",
"33",
"46",
"52",
"62",
"70",
"63",
"70",
"88",
"124",
"238",
"460",
"562",
"768",
"765",
"746",
"602",
"436",
"309",
"206",
"141",
"87",
"83",
"62",
"60",
"44",
"56",
"44",
"56",
"42",
"53",
"41",
"52",
"33",
"30",
"36",
"36",
"32",
"42",
"31",
"40",
"36",
"58",
"56",
"64",
"60",
"66",
"46",
"32",
"41",
"31",
"28",
"35",
"21",
"35",
"24",
"44",
"50",
"44",
"52",
"46",
"44",
"44",
"32",
"39",
"29",
"39",
"29",
"39",
"43",
"31",
"40",
"47",
"40",
"49",
"46",
"56",
"76",
"76",
"107",
"128",
"165",
"202",
"210",
"219",
"173",
"142",
"98",
"122",
"113",
"147",
"148",
"141",
"204",
"264",
"385",
"758",
"1277",
"2116",
"3037",
"3736",
"3825",
"3616",
"2843",
"2050",
"1425",
"1153",
"1250",
"1459",
"1814",
"2078",
"1957",
"1844",
"1519",
"1301",
"928",
"683",
"582",
"563",
"481",
"561",
"479",
"503",
"463",
"445",
"452",
"507",
"629",
"704",
"731",
"698",
"545",
"445",
"294",
"193",
"132",
"99",
"87",
"131",
"125",
"137",
"167",
"172",
"193",
"164",
"139",
"122",
"69",
"60",
"47",
"58",
"45",
"26",
"40",
"32",
"36",
"27",
"45",
"21",
"28",
"36",
"37",
"41",
"33",
"43",
"41",
"56",
"33",
"33",
"47",
"40",
"40",
"52",
"44",
"44",
"44",
"49",
"55",
"32",
"28",
"39",
"41",
"42",
"29",
"37",
"40",
"31",
"38",
"33",
"41",
"45",
"30",
"28",
"29",
"42",
"32",
"36",
"43",
"26",
"53",
"35",
"41",
"32",
"38",
"40",
"30",
"39",
"49",
"38",
"51",
"45",
"49",
"52",
"58",
"39",
"50",
"60",
"54",
"46",
"64",
"56",
"62",
"62",
"45",
"54",
"47",
"69",
"69",
"69",
"42",
"69",
"68",
"84",
"66",
"71",
"71",
"71",
"80",
"84",
"76",
"84",
"82",
"90",
"83",
"68",
"87",
"91",
"92",
"73",
"78",
"84",
"81",
"91",
"95",
"95",
"96",
"81",
"83",
"90",
"105",
"96",
"86",
"105",
"105",
"109",
"79",
"86",
"99",
"101",
"93",
"103",
"87",
"100",
"87",
"113",
"124",
"91",
"92",
"90",
"92",
"76",
"92",
"111",
"128",
"78",
"101",
"99",
"94",
"108",
"97",
"100",
"90",
"105",
"84",
"97",
"94",
"113",
"120",
"92",
"94",
"87",
"91",
"90",
"86",
"112",
"92",
"81",
"97",
"82",
"92",
"98",
"86",
"93",
"91",
"93",
"109",
"101",
"80",
"103",
"107",
"120",
"109",
"101",
"94",
"132",
"101",
"99",
"104",
"112",
"98",
"101",
"91",
"115",
"80",
"105",
"95",
"103",
"109",
"107",
"114",
"103",
"128",
"131",
"117",
"136",
"142",
"144",
"144",
"148",
"136",
"128",
"117",
"110",
"108",
"103",
"93",
"90",
"103",
"98",
"92",
"82",
"113",
"94",
"84",
"90",
"92",
"108",
"101",
"90",
"107",
"101",
"130",
"131",
"166",
"159",
"163",
"144",
"142",
"150",
"142",
"144",
"111",
"113",
"103",
"104",
"121",
"104",
"117",
"76",
"133",
"122",
"103",
"73",
"111",
"106",
"78",
"118",
"100",
"86",
"76",
"100",
"93",
"101",
"103",
"109",
"110",
"100",
"109",
"106",
"103",
"108",
"109",
"126",
"109",
"100",
"113",
"117",
"109",
"97",
"132",
"126",
"120",
"106",
"113",
"108",
"95",
"110",
"91",
"114",
"106",
"99",
"103",
"112",
"98",
"81",
"93",
"100",
"98",
"93",
"98",
"91",
"105",
"96",
"86",
"84",
"103",
"93",
"83",
"96",
"92",
"104",
"99",
"101",
"85",
"100",
"77",
"103",
"80",
"112",
"94",
"88",
"97",
"108",
"104",
"77",
"93",
"88",
"95",
"100",
"99",
"104",
"98",
"100",
"90",
"128",
"107",
"94",
"113",
"104",
"118",
"105",
"127",
"131",
"128",
"118",
"113",
"135",
"156",
"135",
"126",
"175",
"250",
"358",
"568",
"944",
"1499",
"2363",
"3432",
"4858",
"6395",
"8409",
"9831",
"11479",
"12381",
"13402",
"13032",
"12540",
"10885",
"9800",
"7768",
"6238",
"4575",
"3234",
"2151",
"1383",
"846",
"528",
"342",
"221",
"180",
"150",
"147",
"96",
"112",
"109",
"93",
"118",
"112",
"83",
"106",
"100",
"100",
"107",
"99",
"115",
"113",
"120",
"95",
"101",
"103",
"96",
"109",
"122",
"108",
"125",
"109",
"121",
"100",
"109",
"113",
"101",
"121",
"131",
"131",
"115",
"159",
"155",
"213",
"261",
"329",
"465",
"580",
"790",
"1010",
"1325",
"1508",
"1767",
"1884",
"2119",
"1801",
"1904",
"1759",
"1566",
"1320",
"1223",
"905",
"786",
"537",
"426",
"341",
"292",
"217",
"171",
"121",
"159",
"103",
"96",
"74",
"76",
"63",
"88",
"92",
"91",
"68",
"68",
"71",
"72",
"68",
"84",
"77",
"80",
"90",
"72",
"70",
"83",
"69",
"99",
"74",
"47",
"72",
"83",
"72",
"77",
"69",
"86",
"72",
"71",
"69",
"71",
"81",
"71",
"77",
"59",
"77",
"54",
"71",
"77",
"56",
"80",
"82",
"58",
"73",
"72",
"79",
"60",
"64",
"62",
"63",
"67",
"65",
"67",
"60",
"73",
"58",
"69",
"60",
"65",
"69",
"77",
"60",
"54",
"68",
"78",
"68",
"73",
"68",
"62",
"72",
"74",
"68",
"58",
"66",
"73",
"57",
"83",
"67",
"80",
"79",
"78",
"67",
"78",
"60",
"60",
"63",
"53",
"66",
"54",
"54",
"83",
"70",
"69",
"58",
"53",
"58",
"67",
"63",
"76",
"52",
"74",
"59",
"72",
"59",
"68",
"68",
"63",
"41",
"64",
"57",
"73",
"69",
"56",
"69",
"78",
"60",
"69",
"59",
"60",
"68",
"74",
"57",
"63",
"55",
"81",
"69",
"65",
"60",
"64",
"47",
"66",
"65",
"64",
"37",
"63",
"47",
"66",
"65",
"59",
"54",
"68",
"70",
"57",
"62",
"66",
"54",
"60",
"55",
"56",
"47",
"62",
"55",
"63",
"71",
"56",
"59",
"56",
"65",
"73",
"57",
"54",
"54",
"64",
"59",
"53",
"53",
"56",
"38",
"60",
"60",
"49",
"64",
"67",
"60",
"91",
"54",
"52",
"68",
"67",
"50",
"59",
"52",
"59",
"53",
"58",
"60",
"60",
"51",
"68",
"53",
"53",
"42",
"45",
"47",
"57",
"53",
"57",
"52",
"68",
"51",
"55",
"52",
"52",
"52",
"44",
"59",
"59",
"56",
"63",
"70",
"58",
"57",
"59",
"58",
"49",
"52",
"70",
"55",
"56",
"60",
"59",
"53",
"62",
"50",
"58",
"60",
"46",
"47",
"56",
"64",
"55",
"54",
"51",
"56",
"52",
"45",
"68",
"49",
"52",
"36",
"42",
"63",
"55",
"51",
"60",
"58",
"57",
"70",
"62",
"50",
"63",
"60",
"63",
"59",
"55",
"64",
"47",
"55",
"56",
"52",
"70",
"66",
"54",
"71",
"76",
"65",
"63",
"49",
"58",
"77",
"71",
"60",
"72",
"58",
"63",
"67",
"69",
"63",
"88",
"60",
"77",
"77",
"80",
"79",
"76",
"83",
"73",
"92",
"86",
"94",
"105",
"106",
"118",
"130",
"111",
"126",
"158",
"138",
"161",
"190",
"221",
"201",
"196",
"223",
"215",
"228",
"292",
"263",
"271",
"287",
"316",
"299",
"313",
"323",
"332",
"354",
"369",
"317",
"326",
"355",
"393",
"317",
"318",
"290",
"312",
"226",
"268",
"275",
"224",
"212",
"218",
"207",
"172",
"148",
"127",
"125",
"135",
"106",
"108",
"103",
"83",
"86",
"77",
"90",
"87",
"68",
"79",
"78",
"94",
"101",
"112",
"114",
"148",
"137",
"135",
"176",
"171",
"191",
"204",
"200",
"213",
"203",
"174",
"203",
"210",
"171",
"147",
"161",
"125",
"97",
"111",
"77",
"73",
"65",
"51",
"68",
"53",
"49",
"64",
"47",
"83529",
"Channel_info_start",
"Channel : Mg",
"Points : 0",
"Range : 0.000000 - 0.000000",
"Step : 0.010000",
"Channel_info_end",
"Channel_info_start",
"Channel : Al",
"Points : 0",
"Range : 0.000000 - 0.000000",
"Step : 0.010000",
"Channel_info_end",
"Channel_info_start",
"Channel : Si",
"Points : 0",
"Range : 0.000000 - 0.000000",
"Step : 0.010000",
"Channel_info_end",
"Channel_info_start",
"Channel : P ",
"Points : 0",
"Range : 0.000000 - 0.000000",
"Step : 0.010000",
"Channel_info_end",
"Channel_info_start",
"Channel : S ",
"Points : 0",
"Range : 0.000000 - 0.000000",
"Step : 0.010000",
"Channel_info_end",
"Channel_info_start",
"Channel : Cl",
"Points : 0",
"Range : 0.000000 - 0.000000",
"Step : 0.010000",
"Channel_info_end",
"Channel_info_start",
"Channel : K ",
"Points : 0",
"Range : 0.000000 - 0.000000",
"Step : 0.010000",
"Channel_info_end",
"Channel_info_start",
"Channel : Ca",
"Points : 0",
"Range : 0.000000 - 0.000000",
"Step : 0.010000",
"Channel_info_end",
"Channel_info_start",
"Channel : Ti",
"Points : 0",
"Range : 0.000000 - 0.000000",
"Step : 0.010000",
"Channel_info_end",
"Channel_info_start",
"Channel : V ",
"Points : 0",
"Range : 0.000000 - 0.000000",
"Step : 0.010000",
"Channel_info_end",
"Channel_info_start",
"Channel : Cr",
"Points : 0",
"Range : 0.000000 - 0.000000",
"Step : 0.010000",
"Channel_info_end",
"Channel_info_start",
"Channel : Mn",
"Points : 0",
"Range : 0.000000 - 0.000000",
"Step : 0.010000",
"Channel_info_end",
"Channel_info_start",
"Channel : Fe",
"Points : 0",
"Range : 0.000000 - 0.000000",
"Step : 0.010000",
"Channel_info_end",
"Channel_info_start",
"Channel : Cu",
"Points : 0",
"Range : 0.000000 - 0.000000",
"Step : 0.010000",
"Channel_info_end",
"Channel_info_start",
"Channel : Zn",
"Points : 0",
"Range : 0.000000 - 0.000000",
"Step : 0.010000",
"Channel_info_end",
"Channel_info_start",
"Channel : Sr",
"Points : 0",
"Range : 0.000000 - 0.000000",
"Step : 0.010000",
"Channel_info_end",
"Channel_info_start",
"Channel : Pb",
"Points : 0",
"Range : 0.000000 - 0.000000",
"Step : 0.010000",
"Channel_info_end",
"",
"Qualitative Result",
"--------------------------------------------------------------------------------",
"Element :  Se, P , Cd, Ca, Zn, Rh",
"",
"Peak List",
"--------------------------------------------------------------------------------",
"Channel               Line        keV     Net Int.(cps/uA)",
"--------------------------------------------------------------------------------",
"Na                    SeLa         1.40     0.203",
"                      P Ka         2.02     0.011",
"                      CdLL         2.76     0.041",
"                      CdLa         3.14     1.177",
"                      CdLb1        3.32     0.610",
"                      CdLb2        3.55     0.108",
"                      CdLg1        3.71     0.059",
"                      CaKa         3.71     0.131",
"                      CdLg2        3.97     0.038",
"                      ZnKa         8.61     0.030",
"                      SeKa        11.20     5.985",
"                      SeKb        12.48     0.903",
"                      RhKaC       19.28     0.138",
"                      RhKa        20.14     0.074",
"--------------------------------------------------------------------------------",
"",
"Quantitative Result",
"--------------------------------------------------------------------------------",
"Analyte               Result             Std.Dev. Proc.-Calc. Line Intensity(cps/uA)",
"--------------------------------------------------------------------------------",
"====[No. 1 Layer]====< Layer1               >===============================",
"Layer1                   0.000 ug/cm2    -------- Flux       -------- --------",