File: inputs/edxCalibration/edx_raw/2010-06/Au 15771.20100611041943.csv
"Sample    : Au 15771",
"Operator  : Luís",
"Comment  : cubatao-g-policarbonato",
"Group     : kerr2007ag180cal_lt",
"Date       : 2010-06-11 04:15:41",
"",
"Mesurement Condition",
"------------------------------------------------------------------------------------",
"Instrument : 700HS2   Atmosphere : Vac.   Collimator : 10(mm)   Spin : No",
"------------------------------------------------------------------------------------",
"Analyte               TG kV   uA      FI Acq.(keV)  Anal.(keV)  Time(sec)     DT(%)",
"------------------------------------------------------------------------------------",
"Na                    Rh 50  168-Auto Al  0 - 20    0.8 - 1.2   Live -  179   14",
"",
"<Profile>",
"Channel_info_start",
"Channel : Na",
"Points : 2048",
"Range : 0.000000 - 20.48",
"Step : 0.010000",
"Channel_info_end",
"0",
"0",
"0",
"0",
"0",
"0",
"0",
"0",
"0",
"0",
"0",
"0",
"0",
"0",
"0",
"16",
"58",
"69",
"77",
"91",
"93",
"112",
"91",
"69",
"64",
"42",
"43",
"40",
"29",
"36",
"32",
"28",
"28",
"32",
"34",
"28",
"24",
"25",
"23",
"18",
"24",
"19",
"31",
"32",
"19",
"23",
"30",
"24",
"25",
"28",
"27",
"24",
"22",
"18",
"22",
"16",
"30",
"29",
"21",
"34",
"26",
"21",
"21",
"21",
"21",
"36",
"22",
"17",
"28",
"17",
"24",
"31",
"43",
"34",
"43",
"35",
"35",
"40",
"54",
"90",
"131",
"219",
"270",
"274",
"277",
"246",
"210",
"164",
"145",
"114",
"128",
"129",
"138",
"142",
"162",
"182",
"231",
"252",
"293",
"281",
"379",
"473",
"772",
"1168",
"1884",
"2640",
"3372",
"3760",
"3744",
"3629",
"3338",
"2797",
"2222",
"1537",
"985",
"577",
"414",
"291",
"293",
"317",
"384",
"319",
"308",
"268",
"211",
"136",
"90",
"41",
"51",
"38",
"35",
"50",
"47",
"58",
"64",
"64",
"88",
"124",
"135",
"164",
"140",
"156",
"153",
"87",
"70",
"58",
"38",
"42",
"31",
"19",
"22",
"17",
"16",
"26",
"23",
"25",
"30",
"26",
"16",
"22",
"19",
"24",
"19",
"29",
"24",
"24",
"27",
"26",
"27",
"25",
"22",
"21",
"25",
"29",
"28",
"34",
"29",
"28",
"43",
"79",
"118",
"156",
"250",
"312",
"361",
"349",
"322",
"243",
"161",
"116",
"76",
"59",
"38",
"30",
"34",
"36",
"40",
"39",
"44",
"54",
"74",
"71",
"72",
"45",
"42",
"30",
"25",
"22",
"15",
"23",
"17",
"11",
"18",
"16",
"8",
"21",
"25",
"16",
"22",
"34",
"26",
"41",
"29",
"38",
"40",
"43",
"41",
"32",
"28",
"37",
"40",
"44",
"36",
"36",
"32",
"40",
"31",
"27",
"27",
"34",
"23",
"26",
"28",
"28",
"35",
"15",
"38",
"31",
"15",
"37",
"32",
"30",
"36",
"26",
"17",
"32",
"23",
"29",
"42",
"34",
"27",
"39",
"44",
"43",
"50",
"39",
"61",
"55",
"72",
"68",
"63",
"80",
"81",
"59",
"71",
"56",
"50",
"47",
"49",
"62",
"49",
"50",
"45",
"34",
"45",
"41",
"51",
"41",
"41",
"45",
"41",
"53",
"59",
"48",
"53",
"48",
"48",
"55",
"50",
"63",
"64",
"55",
"58",
"75",
"91",
"92",
"94",
"97",
"112",
"130",
"112",
"120",
"118",
"128",
"123",
"137",
"150",
"174",
"136",
"176",
"163",
"155",
"184",
"166",
"164",
"144",
"134",
"115",
"135",
"117",
"119",
"108",
"118",
"107",
"109",
"102",
"90",
"85",
"89",
"97",
"78",
"77",
"88",
"78",
"81",
"71",
"54",
"62",
"55",
"77",
"67",
"61",
"78",
"71",
"66",
"56",
"85",
"64",
"66",
"56",
"72",
"58",
"76",
"45",
"61",
"56",
"62",
"62",
"64",
"63",
"74",
"67",
"69",
"65",
"71",
"77",
"88",
"80",
"81",
"68",
"53",
"71",
"67",
"62",
"90",
"68",
"87",
"74",
"81",
"66",
"67",
"87",
"83",
"91",
"76",
"97",
"92",
"100",
"134",
"116",
"123",
"151",
"138",
"109",
"133",
"125",
"122",
"110",
"115",
"108",
"128",
"119",
"106",
"124",
"134",
"160",
"223",
"222",
"320",
"379",
"471",
"495",
"609",
"700",
"729",
"777",
"706",
"637",
"539",
"450",
"379",
"323",
"296",
"212",
"198",
"138",
"130",
"141",
"118",
"101",
"124",
"117",
"115",
"78",
"101",
"100",
"117",
"107",
"95",
"95",
"92",
"93",
"97",
"114",
"114",
"120",
"108",
"115",
"121",
"124",
"98",
"98",
"107",
"106",
"111",
"125",
"122",
"127",
"132",
"181",
"198",
"217",
"310",
"499",
"684",
"987",
"1527",
"2147",
"3205",
"4246",
"6046",
"7204",
"8802",
"10113",
"11214",
"10879",
"10844",
"9677",
"8513",
"6963",
"5506",
"3924",
"2888",
"1893",
"1224",
"802",
"495",
"303",
"239",
"175",
"136",
"160",
"119",
"123",
"130",
"109",
"127",
"131",
"146",
"151",
"176",
"199",
"213",
"213",
"231",
"215",
"215",
"209",
"187",
"161",
"134",
"108",
"137",
"103",
"97",
"93",
"94",
"76",
"81",
"97",
"80",
"94",
"84",
"74",
"82",
"91",
"95",
"77",
"96",
"84",
"111",
"88",
"92",
"112",
"112",
"128",
"114",
"132",
"134",
"153",
"208",
"228",
"262",
"313",
"381",
"461",
"570",
"610",
"688",
"750",
"820",
"876",
"1059",
"1285",
"1697",
"2120",
"2728",
"3326",
"4178",
"4801",
"5274",
"5736",
"6072",
"5871",
"5800",
"5367",
"5055",
"4576",
"4306",
"3657",
"3453",
"2831",
"2410",
"1968",
"1612",
"1146",
"902",
"728",
"532",
"468",
"396",
"320",
"319",
"299",
"337",
"291",
"275",
"317",
"241",
"217",
"229",
"227",
"178",
"156",
"158",
"118",
"145",
"106",
"104",
"96",
"67",
"78",
"79",
"85",
"77",
"71",
"79",
"84",
"71",
"57",
"70",
"75",
"72",
"75",
"75",
"70",
"76",
"68",
"80",
"61",
"66",
"65",
"65",
"90",
"74",
"74",
"84",
"77",
"94",
"84",
"79",
"71",
"79",
"79",
"96",
"103",
"110",
"105",
"111",
"97",
"114",
"107",
"104",
"96",
"83",
"111",
"146",
"169",
"171",
"203",
"347",
"348",
"476",
"647",
"741",
"792",
"927",
"948",
"1084",
"944",
"969",
"866",
"778",
"667",
"592",
"441",
"328",
"326",
"299",
"275",
"263",
"296",
"263",
"281",
"333",
"370",
"368",
"411",
"337",
"315",
"307",
"265",
"247",
"193",
"200",
"163",
"141",
"117",
"95",
"89",
"79",
"61",
"89",
"67",
"81",
"72",
"66",
"70",
"79",
"74",
"100",
"74",
"84",
"91",
"96",
"67",
"109",
"78",
"93",
"68",
"66",
"69",
"69",
"62",
"68",
"59",
"56",
"62",
"57",
"58",
"56",
"52",
"56",
"56",
"74",
"62",
"49",
"43",
"49",
"48",
"54",
"59",
"56",
"67",
"58",
"56",
"48",
"62",
"50",
"50",
"58",
"57",
"49",
"49",
"41",
"42",
"49",
"54",
"51",
"53",
"28",
"52",
"54",
"45",
"48",
"47",
"55",
"55",
"66",
"50",
"42",
"67",
"50",
"47",
"50",
"56",
"49",
"27",
"58",
"63",
"55",
"51",
"56",
"53",
"57",
"45",
"50",
"54",
"57",
"40",
"40",
"54",
"50",
"43",
"49",
"49",
"56",
"43",
"57",
"50",
"51",
"44",
"41",
"48",
"37",
"53",
"57",
"45",
"44",
"47",
"49",
"49",
"45",
"44",
"48",
"37",
"53",
"41",
"55",
"43",
"47",
"44",
"55",
"44",
"41",
"42",
"40",
"45",
"44",
"44",
"44",
"61",
"52",
"44",
"45",
"37",
"42",
"40",
"50",
"36",
"44",
"55",
"47",
"54",
"48",
"42",
"48",
"43",
"57",
"38",
"48",
"42",
"48",
"41",
"41",
"48",
"58",
"45",
"48",
"54",
"38",
"47",
"42",
"51",
"43",
"38",
"49",
"44",
"39",
"49",
"47",
"44",
"56",
"36",
"39",
"41",
"36",
"47",
"40",
"44",
"54",
"54",
"58",
"53",
"37",
"43",
"50",
"45",
"36",
"43",
"43",
"51",
"38",
"53",
"39",
"41",
"42",
"50",
"51",
"49",
"47",
"53",
"54",
"50",
"39",
"49",
"42",
"54",
"52",
"54",
"43",
"42",
"48",
"47",
"44",
"51",
"51",
"41",
"56",
"49",
"49",
"52",
"48",
"50",
"50",
"64",
"64",
"53",
"80",
"67",
"56",
"54",
"72",
"82",
"64",
"81",
"68",
"79",
"109",
"103",
"100",
"119",
"117",
"129",
"157",
"143",
"147",
"182",
"171",
"206",
"177",
"215",
"208",
"213",
"248",
"249",
"254",
"227",
"268",
"237",
"267",
"225",
"261",
"237",
"243",
"231",
"244",
"204",
"170",
"190",
"210",
"168",
"173",
"137",
"121",
"124",
"129",
"109",
"101",
"85",
"83",
"83",
"76",
"82",
"78",
"64",
"64",
"79",
"87",
"74",
"83",
"83",
"104",
"102",
"122",
"121",
"123",
"184",
"190",
"190",
"219",
"216",
"235",
"227",
"253",
"264",
"211",
"181",
"223",
"199",
"147",
"160",
"100",
"104",
"85",
"65",
"41",
"44",
"37",
"36",
"45",
"39",
"39",
"44",
"20733",
"Channel_info_start",
"Channel : Mg",
"Points : 0",
"Range : 0.000000 - 0.000000",
"Step : 0.010000",
"Channel_info_end",
"Channel_info_start",
"Channel : Al",
"Points : 0",
"Range : 0.000000 - 0.000000",
"Step : 0.010000",
"Channel_info_end",
"Channel_info_start",
"Channel : Si",
"Points : 0",
"Range : 0.000000 - 0.000000",
"Step : 0.010000",
"Channel_info_end",
"Channel_info_start",
"Channel : P ",
"Points : 0",
"Range : 0.000000 - 0.000000",
"Step : 0.010000",
"Channel_info_end",
"Channel_info_start",
"Channel : S ",
"Points : 0",
"Range : 0.000000 - 0.000000",
"Step : 0.010000",
"Channel_info_end",
"Channel_info_start",
"Channel : Cl",
"Points : 0",
"Range : 0.000000 - 0.000000",
"Step : 0.010000",
"Channel_info_end",
"Channel_info_start",
"Channel : K ",
"Points : 0",
"Range : 0.000000 - 0.000000",
"Step : 0.010000",
"Channel_info_end",
"Channel_info_start",
"Channel : Ca",
"Points : 0",
"Range : 0.000000 - 0.000000",
"Step : 0.010000",
"Channel_info_end",
"Channel_info_start",
"Channel : Ti",
"Points : 0",
"Range : 0.000000 - 0.000000",
"Step : 0.010000",
"Channel_info_end",
"Channel_info_start",
"Channel : V ",
"Points : 0",
"Range : 0.000000 - 0.000000",
"Step : 0.010000",
"Channel_info_end",
"Channel_info_start",
"Channel : Cr",
"Points : 0",
"Range : 0.000000 - 0.000000",
"Step : 0.010000",
"Channel_info_end",
"Channel_info_start",
"Channel : Mn",
"Points : 0",
"Range : 0.000000 - 0.000000",
"Step : 0.010000",
"Channel_info_end",
"Channel_info_start",
"Channel : Fe",
"Points : 0",
"Range : 0.000000 - 0.000000",
"Step : 0.010000",
"Channel_info_end",
"Channel_info_start",
"Channel : Cu",
"Points : 0",
"Range : 0.000000 - 0.000000",
"Step : 0.010000",
"Channel_info_end",
"Channel_info_start",
"Channel : Zn",
"Points : 0",
"Range : 0.000000 - 0.000000",
"Step : 0.010000",
"Channel_info_end",
"Channel_info_start",
"Channel : Sr",
"Points : 0",
"Range : 0.000000 - 0.000000",
"Step : 0.010000",
"Channel_info_end",
"Channel_info_start",
"Channel : Pb",
"Points : 0",
"Range : 0.000000 - 0.000000",
"Step : 0.010000",
"Channel_info_end",
"",
"Qualitative Result",
"--------------------------------------------------------------------------------",
"Element :  Rb, Au, Ca, W , Ru",
"",
"Peak List",
"--------------------------------------------------------------------------------",
"Channel               Line        keV     Net Int.(cps/uA)",
"--------------------------------------------------------------------------------",
"Na                    RbLa         1.67     0.094",
"                      ----         1.93     0.065",
"                      AuMa         2.15     1.493",
"                      ----         2.43     0.103",
"                      ----         2.78     0.059",
"                      CaKa         3.68     0.159",
"                      CaKb         4.03     0.024",
"                      ----         6.18     0.031",
"                      ----         6.44     0.062",
"                      AuLL         8.49     0.201",
"                      W La         8.49     0.175",
"                      W Lb1        9.67     0.140",
"                      AuLa         9.69     6.703",
"                      ----        10.28     0.083",
"                      AuLb4       11.13     0.215",
"                      AuLb1       11.44     3.649",
"                      AuLg1       13.36     0.661",
"                      AuLg2       13.73     0.197",
"                      RuKa        19.20     0.145",
"                      ----        20.00     0.130",
"--------------------------------------------------------------------------------",
"",
"Quantitative Result",
"--------------------------------------------------------------------------------",
"Analyte               Result             Std.Dev. Proc.-Calc. Line Intensity(cps/uA)",
"--------------------------------------------------------------------------------",
"====[No. 1 Layer]====< Layer1               >===============================",
"Layer1                   0.000 ug/cm2    -------- Flux       -------- --------",