File: inputs/edxCalibration/edx_raw/2010-06/Au 15771.20100526013004.csv
"Sample    : Au 15771",
"Operator  : luisf",
"Comment  : cubatao-g-policarbonato",
"Group     : kerr2007ag180cal_lt",
"Date       : 2010-05-26 01:25:59",
"",
"Mesurement Condition",
"------------------------------------------------------------------------------------",
"Instrument : 700HS2   Atmosphere : Vac.   Collimator : 10(mm)   Spin : No",
"------------------------------------------------------------------------------------",
"Analyte               TG kV   uA      FI Acq.(keV)  Anal.(keV)  Time(sec)     DT(%)",
"------------------------------------------------------------------------------------",
"Na                    Rh 50  187-Auto Al  0 - 20    0.8 - 1.2   Live -  179   16",
"",
"<Profile>",
"Channel_info_start",
"Channel : Na",
"Points : 2048",
"Range : 0.000000 - 20.48",
"Step : 0.010000",
"Channel_info_end",
"0",
"0",
"0",
"0",
"0",
"0",
"0",
"0",
"0",
"0",
"0",
"0",
"0",
"0",
"0",
"21",
"50",
"69",
"106",
"104",
"107",
"101",
"99",
"89",
"72",
"60",
"49",
"34",
"38",
"38",
"32",
"25",
"27",
"31",
"32",
"24",
"37",
"31",
"29",
"25",
"31",
"28",
"27",
"29",
"24",
"14",
"24",
"28",
"24",
"35",
"26",
"26",
"27",
"20",
"28",
"27",
"35",
"23",
"34",
"29",
"27",
"37",
"20",
"22",
"21",
"31",
"28",
"33",
"35",
"23",
"28",
"32",
"22",
"29",
"39",
"32",
"44",
"59",
"57",
"92",
"148",
"230",
"259",
"333",
"316",
"287",
"219",
"181",
"160",
"145",
"159",
"130",
"150",
"167",
"183",
"196",
"267",
"283",
"326",
"351",
"442",
"621",
"872",
"1307",
"1964",
"2927",
"3752",
"4135",
"4309",
"4008",
"3751",
"3032",
"2592",
"1699",
"1161",
"670",
"456",
"337",
"329",
"335",
"411",
"419",
"386",
"304",
"212",
"166",
"88",
"58",
"50",
"35",
"52",
"49",
"53",
"53",
"58",
"70",
"95",
"118",
"176",
"166",
"184",
"145",
"144",
"119",
"94",
"53",
"50",
"36",
"26",
"31",
"24",
"32",
"17",
"19",
"16",
"24",
"27",
"31",
"27",
"22",
"23",
"24",
"33",
"21",
"24",
"22",
"25",
"34",
"23",
"34",
"21",
"29",
"24",
"29",
"19",
"28",
"27",
"40",
"63",
"80",
"132",
"175",
"246",
"335",
"398",
"416",
"344",
"255",
"218",
"133",
"84",
"55",
"48",
"47",
"39",
"39",
"53",
"40",
"51",
"77",
"59",
"84",
"57",
"62",
"43",
"32",
"32",
"28",
"28",
"24",
"12",
"22",
"17",
"17",
"32",
"26",
"29",
"31",
"36",
"35",
"35",
"38",
"35",
"23",
"28",
"40",
"41",
"40",
"38",
"40",
"35",
"40",
"36",
"46",
"37",
"45",
"28",
"25",
"43",
"38",
"35",
"26",
"21",
"17",
"27",
"36",
"25",
"34",
"26",
"24",
"32",
"36",
"23",
"32",
"26",
"36",
"31",
"43",
"36",
"38",
"46",
"40",
"45",
"60",
"50",
"60",
"70",
"64",
"80",
"69",
"68",
"67",
"76",
"75",
"86",
"61",
"67",
"63",
"63",
"67",
"56",
"48",
"64",
"56",
"45",
"36",
"69",
"47",
"45",
"40",
"45",
"53",
"60",
"47",
"40",
"57",
"38",
"37",
"62",
"76",
"67",
"71",
"55",
"74",
"97",
"86",
"98",
"95",
"100",
"112",
"159",
"145",
"152",
"151",
"150",
"171",
"154",
"165",
"187",
"156",
"199",
"162",
"170",
"176",
"178",
"183",
"164",
"158",
"166",
"140",
"121",
"131",
"159",
"140",
"115",
"110",
"120",
"99",
"105",
"103",
"91",
"73",
"88",
"72",
"88",
"71",
"68",
"73",
"75",
"77",
"67",
"73",
"67",
"80",
"62",
"70",
"76",
"65",
"77",
"71",
"72",
"68",
"70",
"56",
"75",
"62",
"74",
"80",
"98",
"87",
"79",
"76",
"91",
"87",
"81",
"80",
"87",
"83",
"81",
"82",
"80",
"87",
"79",
"82",
"88",
"69",
"89",
"79",
"97",
"86",
"76",
"97",
"97",
"92",
"94",
"96",
"103",
"107",
"135",
"111",
"141",
"168",
"160",
"154",
"128",
"129",
"131",
"114",
"114",
"134",
"134",
"134",
"112",
"130",
"154",
"186",
"241",
"276",
"316",
"393",
"509",
"617",
"694",
"720",
"765",
"810",
"820",
"706",
"625",
"552",
"490",
"361",
"282",
"255",
"219",
"181",
"169",
"136",
"129",
"140",
"114",
"107",
"109",
"133",
"128",
"97",
"119",
"114",
"105",
"101",
"116",
"104",
"115",
"107",
"97",
"121",
"107",
"118",
"109",
"140",
"128",
"138",
"131",
"118",
"151",
"131",
"112",
"167",
"178",
"177",
"180",
"247",
"325",
"457",
"685",
"1040",
"1538",
"2351",
"3400",
"4398",
"6346",
"7572",
"9636",
"10843",
"12018",
"12103",
"12309",
"11219",
"9861",
"8077",
"6535",
"4707",
"3403",
"2349",
"1470",
"895",
"644",
"349",
"251",
"214",
"159",
"143",
"140",
"129",
"155",
"150",
"176",
"130",
"151",
"169",
"205",
"186",
"223",
"246",
"279",
"260",
"264",
"239",
"200",
"213",
"148",
"152",
"141",
"107",
"110",
"115",
"106",
"91",
"103",
"107",
"92",
"97",
"122",
"98",
"86",
"101",
"92",
"92",
"109",
"92",
"119",
"126",
"108",
"100",
"129",
"120",
"151",
"127",
"150",
"169",
"211",
"273",
"274",
"332",
"437",
"545",
"595",
"743",
"785",
"766",
"911",
"995",
"1149",
"1430",
"1879",
"2220",
"3053",
"3513",
"4395",
"5039",
"5845",
"6247",
"6804",
"6574",
"6655",
"6117",
"5985",
"5254",
"4878",
"4272",
"3907",
"3221",
"2733",
"2259",
"1871",
"1412",
"1042",
"872",
"682",
"503",
"426",
"373",
"347",
"337",
"355",
"323",
"380",
"315",
"301",
"280",
"253",
"239",
"189",
"192",
"171",
"156",
"135",
"123",
"124",
"94",
"96",
"105",
"91",
"91",
"91",
"76",
"91",
"81",
"83",
"91",
"92",
"71",
"70",
"73",
"81",
"109",
"80",
"75",
"86",
"73",
"89",
"89",
"65",
"85",
"89",
"67",
"85",
"79",
"101",
"79",
"79",
"92",
"94",
"105",
"105",
"96",
"127",
"108",
"101",
"109",
"110",
"97",
"132",
"103",
"109",
"100",
"118",
"150",
"162",
"246",
"295",
"404",
"569",
"635",
"805",
"896",
"999",
"1098",
"1150",
"1131",
"1115",
"1028",
"942",
"760",
"707",
"535",
"427",
"382",
"332",
"314",
"319",
"288",
"337",
"300",
"343",
"375",
"398",
"370",
"390",
"344",
"350",
"295",
"282",
"230",
"211",
"169",
"147",
"124",
"94",
"110",
"84",
"95",
"100",
"79",
"67",
"85",
"86",
"92",
"112",
"109",
"91",
"96",
"100",
"119",
"119",
"87",
"119",
"95",
"95",
"84",
"84",
"80",
"68",
"70",
"72",
"58",
"68",
"63",
"79",
"64",
"52",
"55",
"61",
"62",
"64",
"71",
"77",
"62",
"63",
"59",
"55",
"47",
"53",
"58",
"64",
"61",
"61",
"69",
"59",
"48",
"55",
"49",
"58",
"65",
"63",
"52",
"64",
"48",
"61",
"55",
"56",
"59",
"67",
"57",
"68",
"67",
"62",
"52",
"62",
"56",
"60",
"37",
"65",
"60",
"56",
"56",
"67",
"56",
"55",
"44",
"50",
"47",
"59",
"64",
"60",
"62",
"58",
"71",
"57",
"53",
"53",
"51",
"70",
"67",
"45",
"60",
"51",
"50",
"56",
"51",
"58",
"71",
"50",
"49",
"61",
"70",
"56",
"44",
"63",
"55",
"59",
"50",
"56",
"34",
"44",
"46",
"50",
"47",
"57",
"41",
"53",
"48",
"47",
"46",
"53",
"58",
"62",
"52",
"45",
"52",
"44",
"46",
"48",
"58",
"50",
"52",
"50",
"46",
"71",
"58",
"50",
"55",
"52",
"49",
"51",
"44",
"47",
"43",
"50",
"50",
"46",
"41",
"60",
"38",
"48",
"52",
"48",
"55",
"45",
"53",
"39",
"52",
"34",
"34",
"41",
"56",
"48",
"31",
"49",
"46",
"49",
"45",
"48",
"53",
"47",
"48",
"48",
"59",
"44",
"50",
"48",
"58",
"52",
"50",
"50",
"41",
"43",
"44",
"44",
"53",
"48",
"62",
"51",
"57",
"44",
"65",
"52",
"46",
"45",
"55",
"57",
"50",
"59",
"56",
"49",
"59",
"46",
"53",
"52",
"57",
"52",
"58",
"58",
"60",
"52",
"45",
"61",
"61",
"60",
"39",
"41",
"58",
"64",
"60",
"59",
"68",
"63",
"67",
"65",
"65",
"88",
"62",
"69",
"63",
"75",
"84",
"114",
"73",
"84",
"123",
"127",
"107",
"129",
"131",
"145",
"150",
"186",
"193",
"176",
"226",
"244",
"195",
"249",
"262",
"242",
"276",
"290",
"290",
"273",
"300",
"312",
"299",
"284",
"237",
"267",
"244",
"235",
"249",
"195",
"217",
"216",
"204",
"194",
"168",
"165",
"140",
"126",
"132",
"119",
"109",
"119",
"91",
"99",
"83",
"68",
"77",
"79",
"77",
"74",
"74",
"85",
"97",
"101",
"120",
"112",
"155",
"136",
"174",
"219",
"226",
"238",
"228",
"240",
"279",
"279",
"241",
"277",
"244",
"259",
"172",
"203",
"180",
"139",
"128",
"109",
"88",
"81",
"64",
"62",
"51",
"65",
"29",
"41",
"47",
"23619",
"Channel_info_start",
"Channel : Mg",
"Points : 0",
"Range : 0.000000 - 0.000000",
"Step : 0.010000",
"Channel_info_end",
"Channel_info_start",
"Channel : Al",
"Points : 0",
"Range : 0.000000 - 0.000000",
"Step : 0.010000",
"Channel_info_end",
"Channel_info_start",
"Channel : Si",
"Points : 0",
"Range : 0.000000 - 0.000000",
"Step : 0.010000",
"Channel_info_end",
"Channel_info_start",
"Channel : P ",
"Points : 0",
"Range : 0.000000 - 0.000000",
"Step : 0.010000",
"Channel_info_end",
"Channel_info_start",
"Channel : S ",
"Points : 0",
"Range : 0.000000 - 0.000000",
"Step : 0.010000",
"Channel_info_end",
"Channel_info_start",
"Channel : Cl",
"Points : 0",
"Range : 0.000000 - 0.000000",
"Step : 0.010000",
"Channel_info_end",
"Channel_info_start",
"Channel : K ",
"Points : 0",
"Range : 0.000000 - 0.000000",
"Step : 0.010000",
"Channel_info_end",
"Channel_info_start",
"Channel : Ca",
"Points : 0",
"Range : 0.000000 - 0.000000",
"Step : 0.010000",
"Channel_info_end",
"Channel_info_start",
"Channel : Ti",
"Points : 0",
"Range : 0.000000 - 0.000000",
"Step : 0.010000",
"Channel_info_end",
"Channel_info_start",
"Channel : V ",
"Points : 0",
"Range : 0.000000 - 0.000000",
"Step : 0.010000",
"Channel_info_end",
"Channel_info_start",
"Channel : Cr",
"Points : 0",
"Range : 0.000000 - 0.000000",
"Step : 0.010000",
"Channel_info_end",
"Channel_info_start",
"Channel : Mn",
"Points : 0",
"Range : 0.000000 - 0.000000",
"Step : 0.010000",
"Channel_info_end",
"Channel_info_start",
"Channel : Fe",
"Points : 0",
"Range : 0.000000 - 0.000000",
"Step : 0.010000",
"Channel_info_end",
"Channel_info_start",
"Channel : Cu",
"Points : 0",
"Range : 0.000000 - 0.000000",
"Step : 0.010000",
"Channel_info_end",
"Channel_info_start",
"Channel : Zn",
"Points : 0",
"Range : 0.000000 - 0.000000",
"Step : 0.010000",
"Channel_info_end",
"Channel_info_start",
"Channel : Sr",
"Points : 0",
"Range : 0.000000 - 0.000000",
"Step : 0.010000",
"Channel_info_end",
"Channel_info_start",
"Channel : Pb",
"Points : 0",
"Range : 0.000000 - 0.000000",
"Step : 0.010000",
"Channel_info_end",
"",
"Qualitative Result",
"--------------------------------------------------------------------------------",
"Element :  Sc, Rb, Au, Ca, Ru",
"",
"Peak List",
"--------------------------------------------------------------------------------",
"Channel               Line        keV     Net Int.(cps/uA)",
"--------------------------------------------------------------------------------",
"Na                    ScLa         0.40     0.016",
"                      RbLa         1.66     0.092",
"                      AuMa         2.16     1.557",
"                      ----         2.43     0.126",
"                      ----         2.79     0.055",
"                      CaKa         3.69     0.161",
"                      CaKb         4.02     0.027",
"                      ----         5.48     0.020",
"                      ----         6.21     0.040",
"                      ----         6.49     0.057",
"                      ----         6.64     0.039",
"                      AuLL         8.51     0.381",
"                      AuLa         9.70     6.695",
"                      ----        10.29     0.090",
"                      AuLb4       11.13     0.243",
"                      AuLb1       11.44     3.667",
"                      AuLg1       13.36     0.632",
"                      AuLg2       13.72     0.174",
"                      RuKa        19.21     0.136",
"                      AuLaSUM     19.45     0.066",
"                      ----        20.00     0.120",
"--------------------------------------------------------------------------------",
"",
"Quantitative Result",
"--------------------------------------------------------------------------------",
"Analyte               Result             Std.Dev. Proc.-Calc. Line Intensity(cps/uA)",
"--------------------------------------------------------------------------------",
"====[No. 1 Layer]====< Layer1               >===============================",
"Layer1                   0.000 ug/cm2    -------- Flux       -------- --------",