File: inputs/edxCalibration/edx_raw/2010-06/BaF2 31515.20100611034049.csv
"Sample    : BaF2 31515",
"Operator  : Luís",
"Comment  : cubatao-g-policarbonato",
"Group     : kerr2007ag180cal_lt",
"Date       : 2010-06-11 03:36:36",
"",
"Mesurement Condition",
"------------------------------------------------------------------------------------",
"Instrument : 700HS2   Atmosphere : Vac.   Collimator : 10(mm)   Spin : No",
"------------------------------------------------------------------------------------",
"Analyte               TG kV   uA      FI Acq.(keV)  Anal.(keV)  Time(sec)     DT(%)",
"------------------------------------------------------------------------------------",
"Na                    Rh 50  393-Auto Al  0 - 20    0.8 - 1.2   Live -  180   15",
"",
"<Profile>",
"Channel_info_start",
"Channel : Na",
"Points : 2048",
"Range : 0.000000 - 20.48",
"Step : 0.010000",
"Channel_info_end",
"0",
"0",
"0",
"0",
"0",
"0",
"0",
"0",
"0",
"0",
"0",
"0",
"0",
"0",
"0",
"12",
"30",
"21",
"34",
"43",
"23",
"36",
"30",
"28",
"32",
"34",
"24",
"35",
"23",
"30",
"36",
"37",
"34",
"31",
"32",
"36",
"30",
"26",
"46",
"39",
"50",
"49",
"69",
"54",
"33",
"42",
"38",
"43",
"44",
"54",
"45",
"57",
"66",
"57",
"68",
"72",
"34",
"39",
"36",
"36",
"34",
"28",
"34",
"36",
"40",
"35",
"38",
"39",
"25",
"28",
"30",
"36",
"30",
"45",
"40",
"40",
"34",
"35",
"38",
"27",
"30",
"38",
"38",
"42",
"57",
"54",
"54",
"45",
"55",
"32",
"49",
"46",
"57",
"30",
"33",
"54",
"49",
"96",
"95",
"120",
"140",
"145",
"123",
"99",
"62",
"48",
"36",
"37",
"55",
"43",
"49",
"44",
"40",
"51",
"45",
"45",
"38",
"30",
"40",
"32",
"31",
"28",
"25",
"35",
"40",
"44",
"26",
"46",
"45",
"52",
"48",
"58",
"70",
"111",
"140",
"151",
"167",
"140",
"123",
"98",
"74",
"55",
"47",
"40",
"52",
"47",
"48",
"54",
"59",
"64",
"62",
"57",
"84",
"108",
"99",
"103",
"111",
"75",
"82",
"61",
"80",
"38",
"60",
"44",
"49",
"56",
"62",
"61",
"54",
"71",
"51",
"70",
"81",
"69",
"63",
"73",
"84",
"127",
"190",
"257",
"495",
"764",
"1078",
"1295",
"1451",
"1507",
"1388",
"1023",
"776",
"497",
"367",
"253",
"233",
"291",
"362",
"503",
"712",
"742",
"834",
"778",
"772",
"559",
"477",
"382",
"284",
"219",
"219",
"194",
"152",
"176",
"201",
"179",
"250",
"330",
"493",
"704",
"1109",
"1963",
"3524",
"5639",
"8706",
"11168",
"13868",
"14875",
"15213",
"12462",
"9697",
"6537",
"4044",
"2269",
"1257",
"675",
"441",
"456",
"616",
"1125",
"1943",
"3158",
"4784",
"6481",
"8589",
"9076",
"9527",
"8846",
"7994",
"6442",
"5218",
"3687",
"2776",
"1919",
"1449",
"1087",
"1061",
"1129",
"1391",
"1713",
"2096",
"2379",
"2526",
"2334",
"2021",
"1568",
"1089",
"782",
"530",
"326",
"247",
"214",
"205",
"232",
"340",
"423",
"577",
"776",
"1039",
"1175",
"1365",
"1338",
"1192",
"982",
"754",
"556",
"462",
"385",
"347",
"386",
"499",
"616",
"677",
"738",
"765",
"698",
"651",
"486",
"445",
"366",
"322",
"256",
"249",
"225",
"211",
"181",
"163",
"142",
"141",
"110",
"141",
"123",
"139",
"119",
"133",
"140",
"127",
"133",
"143",
"175",
"163",
"158",
"187",
"163",
"170",
"160",
"172",
"131",
"161",
"164",
"144",
"133",
"143",
"166",
"180",
"162",
"173",
"161",
"137",
"120",
"137",
"153",
"131",
"160",
"144",
"135",
"135",
"127",
"131",
"133",
"149",
"123",
"130",
"141",
"146",
"145",
"138",
"137",
"128",
"135",
"148",
"134",
"155",
"144",
"133",
"142",
"184",
"148",
"170",
"152",
"196",
"158",
"157",
"194",
"194",
"158",
"177",
"205",
"177",
"179",
"186",
"166",
"194",
"178",
"178",
"181",
"164",
"180",
"192",
"163",
"138",
"141",
"191",
"157",
"193",
"151",
"176",
"199",
"197",
"203",
"189",
"176",
"228",
"215",
"208",
"217",
"237",
"232",
"231",
"233",
"223",
"208",
"194",
"197",
"173",
"161",
"177",
"144",
"202",
"158",
"141",
"155",
"145",
"149",
"127",
"162",
"158",
"163",
"198",
"155",
"197",
"215",
"216",
"186",
"235",
"237",
"222",
"202",
"211",
"182",
"204",
"175",
"194",
"154",
"156",
"170",
"161",
"172",
"168",
"154",
"179",
"168",
"185",
"155",
"170",
"180",
"188",
"157",
"170",
"182",
"188",
"177",
"186",
"163",
"189",
"193",
"153",
"169",
"188",
"185",
"191",
"213",
"196",
"174",
"181",
"178",
"194",
"188",
"185",
"204",
"222",
"185",
"165",
"154",
"186",
"189",
"158",
"146",
"192",
"188",
"164",
"175",
"156",
"177",
"155",
"146",
"176",
"150",
"170",
"160",
"176",
"145",
"135",
"128",
"146",
"142",
"135",
"152",
"127",
"145",
"174",
"153",
"143",
"149",
"167",
"156",
"128",
"146",
"154",
"143",
"165",
"150",
"150",
"144",
"142",
"187",
"160",
"165",
"143",
"146",
"135",
"148",
"162",
"162",
"151",
"172",
"146",
"172",
"164",
"158",
"153",
"135",
"149",
"166",
"181",
"144",
"152",
"162",
"139",
"135",
"152",
"153",
"151",
"143",
"167",
"145",
"160",
"158",
"151",
"149",
"130",
"138",
"154",
"139",
"144",
"139",
"137",
"139",
"145",
"157",
"139",
"152",
"133",
"155",
"150",
"148",
"150",
"144",
"151",
"135",
"139",
"134",
"133",
"142",
"135",
"128",
"152",
"157",
"158",
"153",
"130",
"126",
"138",
"129",
"129",
"128",
"165",
"129",
"142",
"135",
"138",
"145",
"117",
"148",
"134",
"127",
"130",
"153",
"135",
"146",
"130",
"150",
"152",
"135",
"135",
"127",
"145",
"149",
"139",
"119",
"118",
"104",
"153",
"119",
"128",
"135",
"129",
"157",
"145",
"126",
"130",
"148",
"134",
"110",
"133",
"133",
"140",
"130",
"125",
"137",
"137",
"143",
"120",
"137",
"152",
"128",
"123",
"128",
"157",
"130",
"116",
"129",
"106",
"144",
"123",
"117",
"129",
"130",
"118",
"135",
"135",
"139",
"133",
"142",
"117",
"108",
"129",
"141",
"118",
"107",
"111",
"119",
"128",
"114",
"126",
"113",
"107",
"107",
"117",
"117",
"110",
"109",
"107",
"132",
"114",
"128",
"135",
"132",
"126",
"127",
"114",
"111",
"127",
"108",
"121",
"101",
"123",
"125",
"128",
"121",
"110",
"130",
"113",
"129",
"126",
"122",
"125",
"126",
"170",
"130",
"130",
"115",
"131",
"122",
"151",
"119",
"123",
"122",
"119",
"105",
"119",
"107",
"101",
"120",
"128",
"115",
"101",
"106",
"107",
"105",
"122",
"89",
"116",
"110",
"109",
"99",
"120",
"128",
"116",
"128",
"97",
"111",
"132",
"116",
"93",
"106",
"120",
"91",
"119",
"117",
"110",
"105",
"107",
"110",
"110",
"94",
"102",
"117",
"110",
"91",
"114",
"111",
"105",
"103",
"116",
"86",
"105",
"87",
"96",
"102",
"110",
"94",
"101",
"127",
"90",
"107",
"111",
"103",
"79",
"104",
"120",
"94",
"113",
"105",
"93",
"106",
"94",
"108",
"98",
"102",
"104",
"84",
"97",
"87",
"103",
"103",
"109",
"110",
"91",
"86",
"89",
"105",
"109",
"99",
"94",
"114",
"93",
"106",
"96",
"85",
"106",
"103",
"83",
"99",
"99",
"110",
"110",
"89",
"101",
"74",
"94",
"83",
"69",
"83",
"111",
"94",
"96",
"90",
"94",
"94",
"104",
"95",
"98",
"74",
"79",
"82",
"102",
"87",
"75",
"104",
"109",
"102",
"83",
"81",
"109",
"85",
"108",
"94",
"84",
"84",
"92",
"86",
"84",
"89",
"83",
"81",
"102",
"89",
"93",
"78",
"102",
"99",
"92",
"89",
"90",
"93",
"83",
"108",
"95",
"94",
"97",
"76",
"111",
"80",
"99",
"104",
"96",
"101",
"87",
"107",
"72",
"104",
"73",
"97",
"99",
"86",
"87",
"101",
"85",
"82",
"104",
"85",
"79",
"95",
"91",
"83",
"106",
"74",
"95",
"108",
"101",
"91",
"101",
"93",
"87",
"85",
"64",
"92",
"98",
"101",
"102",
"93",
"86",
"110",
"91",
"95",
"106",
"89",
"90",
"106",
"122",
"110",
"101",
"80",
"114",
"109",
"90",
"126",
"109",
"126",
"120",
"97",
"162",
"139",
"145",
"131",
"161",
"151",
"176",
"174",
"185",
"197",
"228",
"221",
"249",
"229",
"275",
"317",
"359",
"321",
"370",
"376",
"425",
"404",
"452",
"452",
"462",
"472",
"546",
"517",
"591",
"563",
"611",
"534",
"645",
"577",
"577",
"498",
"547",
"538",
"495",
"465",
"425",
"410",
"393",
"391",
"342",
"303",
"309",
"267",
"276",
"237",
"211",
"209",
"202",
"188",
"170",
"184",
"152",
"151",
"149",
"132",
"130",
"150",
"152",
"167",
"199",
"179",
"202",
"228",
"278",
"269",
"310",
"338",
"344",
"368",
"368",
"370",
"382",
"362",
"356",
"359",
"339",
"310",
"257",
"212",
"187",
"153",
"156",
"121",
"128",
"107",
"84",
"82",
"76",
"90",
"78",
"83",
"56130",
"Channel_info_start",
"Channel : Mg",
"Points : 0",
"Range : 0.000000 - 0.000000",
"Step : 0.010000",
"Channel_info_end",
"Channel_info_start",
"Channel : Al",
"Points : 0",
"Range : 0.000000 - 0.000000",
"Step : 0.010000",
"Channel_info_end",
"Channel_info_start",
"Channel : Si",
"Points : 0",
"Range : 0.000000 - 0.000000",
"Step : 0.010000",
"Channel_info_end",
"Channel_info_start",
"Channel : P ",
"Points : 0",
"Range : 0.000000 - 0.000000",
"Step : 0.010000",
"Channel_info_end",
"Channel_info_start",
"Channel : S ",
"Points : 0",
"Range : 0.000000 - 0.000000",
"Step : 0.010000",
"Channel_info_end",
"Channel_info_start",
"Channel : Cl",
"Points : 0",
"Range : 0.000000 - 0.000000",
"Step : 0.010000",
"Channel_info_end",
"Channel_info_start",
"Channel : K ",
"Points : 0",
"Range : 0.000000 - 0.000000",
"Step : 0.010000",
"Channel_info_end",
"Channel_info_start",
"Channel : Ca",
"Points : 0",
"Range : 0.000000 - 0.000000",
"Step : 0.010000",
"Channel_info_end",
"Channel_info_start",
"Channel : Ti",
"Points : 0",
"Range : 0.000000 - 0.000000",
"Step : 0.010000",
"Channel_info_end",
"Channel_info_start",
"Channel : V ",
"Points : 0",
"Range : 0.000000 - 0.000000",
"Step : 0.010000",
"Channel_info_end",
"Channel_info_start",
"Channel : Cr",
"Points : 0",
"Range : 0.000000 - 0.000000",
"Step : 0.010000",
"Channel_info_end",
"Channel_info_start",
"Channel : Mn",
"Points : 0",
"Range : 0.000000 - 0.000000",
"Step : 0.010000",
"Channel_info_end",
"Channel_info_start",
"Channel : Fe",
"Points : 0",
"Range : 0.000000 - 0.000000",
"Step : 0.010000",
"Channel_info_end",
"Channel_info_start",
"Channel : Cu",
"Points : 0",
"Range : 0.000000 - 0.000000",
"Step : 0.010000",
"Channel_info_end",
"Channel_info_start",
"Channel : Zn",
"Points : 0",
"Range : 0.000000 - 0.000000",
"Step : 0.010000",
"Channel_info_end",
"Channel_info_start",
"Channel : Sr",
"Points : 0",
"Range : 0.000000 - 0.000000",
"Step : 0.010000",
"Channel_info_end",
"Channel_info_start",
"Channel : Pb",
"Points : 0",
"Range : 0.000000 - 0.000000",
"Step : 0.010000",
"Channel_info_end",
"",
"Qualitative Result",
"--------------------------------------------------------------------------------",
"Element :  P , Ba, Ca, Te, Pr",
"",
"Peak List",
"--------------------------------------------------------------------------------",
"Channel               Line        keV     Net Int.(cps/uA)",
"--------------------------------------------------------------------------------",
"Na                    P Ka         2.01     0.019",
"                      BaLaESC      2.72     0.026",
"                      BaLb1ESC     3.09     0.010",
"                      CaKa         3.69     0.279",
"                      BaLL         3.96     0.093",
"                      TeLb1        3.96     0.044",
"                      BaLa         4.47     3.103",
"                      BaLb1        4.84     1.973",
"                      BaLb2        5.16     0.474",
"                      BaLg1        5.54     0.186",
"                      PrLb1        5.54     0.055",
"                      BaLg2        5.80     0.127",
"                      ----         8.08     0.022",
"                      ----        19.12     0.133",
"                      ----        19.40     0.072",
"--------------------------------------------------------------------------------",
"",
"Quantitative Result",
"--------------------------------------------------------------------------------",
"Analyte               Result             Std.Dev. Proc.-Calc. Line Intensity(cps/uA)",
"--------------------------------------------------------------------------------",
"====[No. 1 Layer]====< Layer1               >===============================",
"Layer1                   0.000 ug/cm2    -------- Flux       -------- --------",