File: inputs/edxCalibration/edx_raw/2010-06/BaF2 31515.20100526004721.csv
"Sample    : BaF2 31515",
"Operator  : luisf",
"Comment  : cubatao-g-policarbonato",
"Group     : kerr2007ag180cal_lt",
"Date       : 2010-05-26 00:43:09",
"",
"Mesurement Condition",
"------------------------------------------------------------------------------------",
"Instrument : 700HS2   Atmosphere : Vac.   Collimator : 10(mm)   Spin : No",
"------------------------------------------------------------------------------------",
"Analyte               TG kV   uA      FI Acq.(keV)  Anal.(keV)  Time(sec)     DT(%)",
"------------------------------------------------------------------------------------",
"Na                    Rh 50  393-Auto Al  0 - 20    0.8 - 1.2   Live -  179   15",
"",
"<Profile>",
"Channel_info_start",
"Channel : Na",
"Points : 2048",
"Range : 0.000000 - 20.48",
"Step : 0.010000",
"Channel_info_end",
"0",
"0",
"0",
"0",
"0",
"0",
"0",
"0",
"0",
"0",
"0",
"0",
"0",
"0",
"1",
"12",
"37",
"25",
"27",
"27",
"31",
"31",
"24",
"31",
"44",
"31",
"29",
"25",
"34",
"34",
"22",
"37",
"20",
"26",
"31",
"38",
"32",
"25",
"54",
"47",
"50",
"46",
"61",
"44",
"35",
"50",
"43",
"43",
"56",
"43",
"60",
"64",
"45",
"69",
"57",
"64",
"31",
"55",
"34",
"33",
"34",
"33",
"27",
"26",
"28",
"26",
"29",
"25",
"24",
"22",
"44",
"31",
"39",
"44",
"27",
"20",
"34",
"25",
"32",
"40",
"47",
"28",
"38",
"32",
"46",
"44",
"52",
"52",
"54",
"28",
"31",
"48",
"52",
"40",
"34",
"48",
"61",
"69",
"97",
"146",
"131",
"159",
"107",
"84",
"71",
"58",
"33",
"46",
"34",
"39",
"40",
"37",
"41",
"32",
"37",
"32",
"32",
"32",
"48",
"27",
"31",
"32",
"44",
"36",
"27",
"52",
"40",
"38",
"28",
"47",
"59",
"67",
"71",
"102",
"126",
"169",
"153",
"151",
"138",
"96",
"69",
"58",
"57",
"55",
"48",
"29",
"46",
"44",
"43",
"50",
"57",
"76",
"82",
"98",
"105",
"100",
"98",
"105",
"86",
"72",
"70",
"64",
"54",
"58",
"44",
"59",
"57",
"40",
"67",
"57",
"68",
"69",
"62",
"62",
"74",
"75",
"95",
"139",
"162",
"282",
"478",
"742",
"1033",
"1250",
"1474",
"1464",
"1308",
"1039",
"790",
"532",
"321",
"222",
"217",
"248",
"389",
"510",
"625",
"749",
"842",
"800",
"735",
"671",
"482",
"405",
"316",
"254",
"188",
"181",
"151",
"186",
"205",
"221",
"257",
"334",
"485",
"652",
"1099",
"1817",
"3166",
"5351",
"8440",
"10762",
"13697",
"14686",
"14887",
"12409",
"9814",
"6919",
"4486",
"2463",
"1424",
"713",
"474",
"460",
"609",
"988",
"1814",
"3002",
"4595",
"6161",
"8228",
"8894",
"9445",
"8950",
"8101",
"6487",
"5172",
"3852",
"2847",
"2036",
"1545",
"1170",
"990",
"1069",
"1371",
"1688",
"2056",
"2297",
"2354",
"2240",
"1989",
"1544",
"1104",
"807",
"520",
"330",
"250",
"195",
"213",
"225",
"312",
"384",
"591",
"755",
"989",
"1156",
"1255",
"1257",
"1237",
"1045",
"784",
"570",
"462",
"308",
"358",
"370",
"452",
"590",
"651",
"733",
"726",
"727",
"662",
"551",
"424",
"345",
"311",
"226",
"260",
"236",
"210",
"222",
"166",
"187",
"157",
"146",
"127",
"153",
"140",
"123",
"111",
"143",
"133",
"143",
"156",
"164",
"156",
"158",
"176",
"139",
"162",
"173",
"167",
"189",
"149",
"154",
"159",
"135",
"128",
"144",
"145",
"140",
"141",
"163",
"140",
"142",
"158",
"139",
"132",
"152",
"158",
"124",
"133",
"117",
"126",
"117",
"119",
"139",
"163",
"132",
"155",
"138",
"123",
"138",
"135",
"150",
"134",
"123",
"155",
"166",
"158",
"162",
"154",
"171",
"175",
"141",
"167",
"149",
"178",
"177",
"169",
"169",
"180",
"153",
"171",
"175",
"176",
"174",
"152",
"185",
"197",
"158",
"178",
"163",
"169",
"159",
"164",
"181",
"162",
"170",
"168",
"183",
"176",
"174",
"163",
"176",
"206",
"205",
"234",
"203",
"230",
"216",
"224",
"215",
"213",
"216",
"211",
"218",
"206",
"200",
"185",
"189",
"174",
"155",
"157",
"152",
"141",
"173",
"154",
"166",
"159",
"154",
"166",
"135",
"177",
"178",
"157",
"175",
"216",
"191",
"192",
"235",
"229",
"214",
"203",
"218",
"165",
"193",
"149",
"187",
"149",
"175",
"158",
"157",
"168",
"171",
"195",
"186",
"189",
"186",
"154",
"171",
"168",
"162",
"171",
"168",
"152",
"161",
"171",
"195",
"185",
"177",
"201",
"180",
"220",
"176",
"181",
"179",
"188",
"207",
"202",
"170",
"185",
"174",
"190",
"175",
"178",
"209",
"175",
"195",
"178",
"199",
"178",
"171",
"202",
"203",
"176",
"162",
"177",
"149",
"153",
"161",
"162",
"152",
"143",
"154",
"170",
"147",
"178",
"144",
"157",
"141",
"152",
"151",
"137",
"138",
"138",
"137",
"176",
"155",
"149",
"143",
"158",
"133",
"138",
"151",
"165",
"140",
"163",
"181",
"162",
"126",
"150",
"164",
"173",
"146",
"146",
"170",
"139",
"159",
"164",
"164",
"162",
"133",
"135",
"166",
"150",
"135",
"146",
"132",
"151",
"150",
"133",
"150",
"140",
"137",
"151",
"154",
"189",
"139",
"147",
"142",
"152",
"141",
"143",
"157",
"137",
"135",
"178",
"138",
"143",
"124",
"159",
"161",
"142",
"149",
"135",
"151",
"154",
"150",
"154",
"153",
"153",
"153",
"153",
"144",
"138",
"146",
"146",
"154",
"169",
"149",
"132",
"140",
"154",
"134",
"194",
"132",
"139",
"134",
"132",
"140",
"131",
"133",
"121",
"111",
"146",
"142",
"173",
"143",
"151",
"167",
"128",
"139",
"130",
"130",
"121",
"156",
"129",
"141",
"126",
"128",
"112",
"118",
"144",
"116",
"127",
"122",
"134",
"133",
"150",
"138",
"124",
"138",
"154",
"145",
"114",
"134",
"147",
"132",
"127",
"144",
"146",
"131",
"137",
"118",
"129",
"138",
"133",
"146",
"123",
"141",
"124",
"139",
"128",
"118",
"131",
"131",
"131",
"133",
"127",
"122",
"122",
"115",
"111",
"139",
"131",
"132",
"126",
"129",
"119",
"124",
"117",
"122",
"122",
"97",
"134",
"146",
"127",
"106",
"109",
"116",
"131",
"91",
"140",
"130",
"129",
"129",
"114",
"108",
"120",
"108",
"122",
"130",
"115",
"138",
"132",
"130",
"115",
"124",
"120",
"116",
"115",
"112",
"112",
"112",
"119",
"115",
"115",
"135",
"129",
"122",
"145",
"147",
"133",
"118",
"123",
"141",
"152",
"145",
"118",
"121",
"133",
"123",
"112",
"107",
"123",
"108",
"137",
"93",
"120",
"109",
"115",
"119",
"104",
"108",
"99",
"120",
"123",
"111",
"120",
"97",
"107",
"98",
"108",
"112",
"124",
"105",
"90",
"97",
"129",
"100",
"110",
"116",
"105",
"110",
"132",
"117",
"112",
"96",
"116",
"93",
"103",
"100",
"102",
"95",
"124",
"92",
"97",
"109",
"108",
"114",
"97",
"119",
"106",
"94",
"117",
"98",
"114",
"90",
"109",
"76",
"109",
"111",
"117",
"90",
"99",
"90",
"90",
"117",
"104",
"100",
"103",
"79",
"106",
"96",
"112",
"94",
"109",
"105",
"75",
"92",
"111",
"88",
"103",
"92",
"105",
"115",
"90",
"94",
"97",
"98",
"88",
"100",
"86",
"91",
"79",
"69",
"86",
"107",
"102",
"85",
"94",
"91",
"86",
"75",
"99",
"105",
"110",
"104",
"115",
"90",
"83",
"95",
"96",
"96",
"93",
"104",
"106",
"105",
"79",
"93",
"95",
"63",
"108",
"91",
"119",
"68",
"73",
"80",
"84",
"94",
"90",
"93",
"82",
"81",
"119",
"107",
"90",
"86",
"75",
"102",
"92",
"97",
"117",
"88",
"102",
"79",
"97",
"61",
"76",
"96",
"78",
"81",
"85",
"76",
"76",
"96",
"83",
"87",
"78",
"97",
"81",
"87",
"68",
"100",
"73",
"80",
"79",
"80",
"94",
"86",
"92",
"69",
"73",
"110",
"88",
"96",
"98",
"97",
"93",
"86",
"76",
"91",
"90",
"85",
"95",
"74",
"97",
"94",
"78",
"86",
"85",
"96",
"107",
"90",
"97",
"94",
"91",
"116",
"99",
"99",
"102",
"106",
"111",
"114",
"94",
"108",
"99",
"96",
"105",
"115",
"118",
"112",
"130",
"115",
"133",
"118",
"137",
"108",
"122",
"140",
"162",
"137",
"158",
"170",
"185",
"197",
"217",
"230",
"229",
"257",
"253",
"334",
"333",
"277",
"355",
"407",
"400",
"399",
"439",
"459",
"462",
"529",
"562",
"537",
"583",
"585",
"567",
"531",
"580",
"558",
"568",
"507",
"533",
"486",
"497",
"436",
"464",
"427",
"389",
"372",
"371",
"302",
"333",
"287",
"286",
"259",
"211",
"218",
"202",
"155",
"175",
"169",
"144",
"153",
"130",
"135",
"151",
"118",
"145",
"155",
"149",
"161",
"200",
"201",
"241",
"248",
"263",
"317",
"325",
"307",
"379",
"365",
"367",
"333",
"349",
"335",
"313",
"277",
"241",
"236",
"190",
"170",
"152",
"111",
"124",
"92",
"95",
"72",
"76",
"75",
"95",
"74",
"54917",
"Channel_info_start",
"Channel : Mg",
"Points : 0",
"Range : 0.000000 - 0.000000",
"Step : 0.010000",
"Channel_info_end",
"Channel_info_start",
"Channel : Al",
"Points : 0",
"Range : 0.000000 - 0.000000",
"Step : 0.010000",
"Channel_info_end",
"Channel_info_start",
"Channel : Si",
"Points : 0",
"Range : 0.000000 - 0.000000",
"Step : 0.010000",
"Channel_info_end",
"Channel_info_start",
"Channel : P ",
"Points : 0",
"Range : 0.000000 - 0.000000",
"Step : 0.010000",
"Channel_info_end",
"Channel_info_start",
"Channel : S ",
"Points : 0",
"Range : 0.000000 - 0.000000",
"Step : 0.010000",
"Channel_info_end",
"Channel_info_start",
"Channel : Cl",
"Points : 0",
"Range : 0.000000 - 0.000000",
"Step : 0.010000",
"Channel_info_end",
"Channel_info_start",
"Channel : K ",
"Points : 0",
"Range : 0.000000 - 0.000000",
"Step : 0.010000",
"Channel_info_end",
"Channel_info_start",
"Channel : Ca",
"Points : 0",
"Range : 0.000000 - 0.000000",
"Step : 0.010000",
"Channel_info_end",
"Channel_info_start",
"Channel : Ti",
"Points : 0",
"Range : 0.000000 - 0.000000",
"Step : 0.010000",
"Channel_info_end",
"Channel_info_start",
"Channel : V ",
"Points : 0",
"Range : 0.000000 - 0.000000",
"Step : 0.010000",
"Channel_info_end",
"Channel_info_start",
"Channel : Cr",
"Points : 0",
"Range : 0.000000 - 0.000000",
"Step : 0.010000",
"Channel_info_end",
"Channel_info_start",
"Channel : Mn",
"Points : 0",
"Range : 0.000000 - 0.000000",
"Step : 0.010000",
"Channel_info_end",
"Channel_info_start",
"Channel : Fe",
"Points : 0",
"Range : 0.000000 - 0.000000",
"Step : 0.010000",
"Channel_info_end",
"Channel_info_start",
"Channel : Cu",
"Points : 0",
"Range : 0.000000 - 0.000000",
"Step : 0.010000",
"Channel_info_end",
"Channel_info_start",
"Channel : Zn",
"Points : 0",
"Range : 0.000000 - 0.000000",
"Step : 0.010000",
"Channel_info_end",
"Channel_info_start",
"Channel : Sr",
"Points : 0",
"Range : 0.000000 - 0.000000",
"Step : 0.010000",
"Channel_info_end",
"Channel_info_start",
"Channel : Pb",
"Points : 0",
"Range : 0.000000 - 0.000000",
"Step : 0.010000",
"Channel_info_end",
"",
"Qualitative Result",
"--------------------------------------------------------------------------------",
"Element :  P , Ba, Ca, Te, Pr",
"",
"Peak List",
"--------------------------------------------------------------------------------",
"Channel               Line        keV     Net Int.(cps/uA)",
"--------------------------------------------------------------------------------",
"Na                    P Ka         1.98     0.021",
"                      BaLaESC      2.70     0.024",
"                      BaLb1ESC     3.08     0.012",
"                      CaKa         3.68     0.282",
"                      BaLL         3.96     0.092",
"                      TeLb1        3.96     0.043",
"                      BaLa         4.47     3.059",
"                      BaLb1        4.84     1.969",
"                      BaLb2        5.16     0.464",
"                      BaLg1        5.54     0.184",
"                      PrLb1        5.54     0.057",
"                      BaLg2        5.81     0.123",
"                      ----        19.13     0.122",
"                      ----        19.51     0.035",
"--------------------------------------------------------------------------------",
"",
"Quantitative Result",
"--------------------------------------------------------------------------------",
"Analyte               Result             Std.Dev. Proc.-Calc. Line Intensity(cps/uA)",
"--------------------------------------------------------------------------------",
"====[No. 1 Layer]====< Layer1               >===============================",
"Layer1                   0.000 ug/cm2    -------- Flux       -------- --------",