File: inputs/edxCalibration/edx_raw/2010-06/BaFe 31514.20100611033638.csv
"Sample    : BaFe 31514",
"Operator  : Luís",
"Comment  : cubatao-g-policarbonato",
"Group     : kerr2007ag180cal_lt",
"Date       : 2010-06-11 03:32:27",
"",
"Mesurement Condition",
"------------------------------------------------------------------------------------",
"Instrument : 700HS2   Atmosphere : Vac.   Collimator : 10(mm)   Spin : No",
"------------------------------------------------------------------------------------",
"Analyte               TG kV   uA      FI Acq.(keV)  Anal.(keV)  Time(sec)     DT(%)",
"------------------------------------------------------------------------------------",
"Na                    Rh 50  360-Auto Al  0 - 20    0.8 - 1.2   Live -  179   15",
"",
"<Profile>",
"Channel_info_start",
"Channel : Na",
"Points : 2048",
"Range : 0.000000 - 20.48",
"Step : 0.010000",
"Channel_info_end",
"0",
"0",
"0",
"0",
"0",
"0",
"0",
"0",
"0",
"0",
"0",
"0",
"0",
"0",
"0",
"9",
"32",
"39",
"17",
"28",
"23",
"32",
"35",
"36",
"25",
"26",
"28",
"28",
"34",
"22",
"24",
"25",
"34",
"45",
"25",
"38",
"37",
"34",
"48",
"52",
"50",
"30",
"41",
"42",
"36",
"51",
"35",
"45",
"37",
"53",
"65",
"68",
"72",
"62",
"64",
"51",
"40",
"49",
"35",
"25",
"29",
"20",
"28",
"23",
"29",
"25",
"32",
"32",
"34",
"32",
"28",
"28",
"34",
"34",
"29",
"34",
"26",
"36",
"23",
"33",
"25",
"30",
"30",
"46",
"49",
"38",
"44",
"58",
"53",
"53",
"48",
"50",
"48",
"46",
"40",
"54",
"58",
"75",
"103",
"119",
"134",
"133",
"105",
"84",
"61",
"46",
"41",
"38",
"48",
"44",
"38",
"51",
"33",
"34",
"27",
"39",
"25",
"32",
"36",
"35",
"36",
"28",
"37",
"42",
"36",
"42",
"40",
"38",
"36",
"36",
"50",
"60",
"80",
"111",
"137",
"139",
"145",
"135",
"109",
"82",
"75",
"60",
"53",
"38",
"34",
"32",
"37",
"45",
"45",
"51",
"58",
"68",
"95",
"89",
"102",
"99",
"107",
"83",
"75",
"73",
"68",
"59",
"40",
"69",
"50",
"39",
"58",
"46",
"48",
"63",
"51",
"80",
"60",
"49",
"76",
"76",
"90",
"102",
"183",
"289",
"443",
"653",
"921",
"1196",
"1406",
"1318",
"1176",
"953",
"695",
"443",
"309",
"198",
"213",
"260",
"360",
"497",
"622",
"699",
"793",
"778",
"718",
"550",
"548",
"346",
"320",
"253",
"186",
"172",
"174",
"181",
"200",
"219",
"252",
"333",
"440",
"700",
"1048",
"1954",
"3396",
"5468",
"8384",
"11031",
"13750",
"14764",
"14905",
"12287",
"9607",
"6549",
"4029",
"2230",
"1272",
"669",
"452",
"410",
"612",
"1027",
"1856",
"3066",
"4720",
"6374",
"8281",
"8952",
"9410",
"8574",
"8063",
"6213",
"5037",
"3697",
"2737",
"1909",
"1484",
"1103",
"1039",
"1042",
"1388",
"1687",
"2125",
"2322",
"2491",
"2239",
"2007",
"1439",
"1051",
"701",
"441",
"326",
"227",
"184",
"228",
"223",
"285",
"433",
"611",
"786",
"968",
"1214",
"1322",
"1308",
"1175",
"991",
"786",
"582",
"473",
"339",
"372",
"393",
"474",
"567",
"651",
"748",
"753",
"676",
"615",
"528",
"405",
"332",
"300",
"254",
"231",
"227",
"205",
"190",
"187",
"150",
"123",
"109",
"125",
"115",
"97",
"122",
"111",
"119",
"139",
"118",
"117",
"146",
"160",
"147",
"168",
"161",
"182",
"173",
"155",
"119",
"149",
"136",
"145",
"155",
"132",
"136",
"134",
"147",
"152",
"137",
"160",
"125",
"137",
"135",
"147",
"107",
"127",
"119",
"110",
"108",
"114",
"131",
"100",
"122",
"126",
"136",
"129",
"132",
"123",
"130",
"143",
"124",
"112",
"131",
"123",
"152",
"148",
"149",
"151",
"154",
"163",
"140",
"152",
"156",
"146",
"174",
"196",
"142",
"149",
"158",
"129",
"144",
"136",
"171",
"169",
"155",
"145",
"160",
"156",
"145",
"173",
"139",
"147",
"161",
"171",
"171",
"185",
"170",
"166",
"159",
"176",
"180",
"198",
"187",
"215",
"184",
"229",
"206",
"221",
"200",
"245",
"195",
"173",
"186",
"181",
"204",
"192",
"154",
"182",
"190",
"155",
"144",
"133",
"160",
"155",
"144",
"133",
"144",
"157",
"169",
"150",
"184",
"198",
"167",
"210",
"220",
"199",
"206",
"208",
"203",
"205",
"168",
"188",
"172",
"186",
"169",
"148",
"156",
"154",
"170",
"168",
"147",
"173",
"151",
"169",
"186",
"178",
"158",
"170",
"175",
"169",
"168",
"209",
"179",
"174",
"156",
"180",
"180",
"194",
"173",
"192",
"203",
"203",
"167",
"174",
"156",
"179",
"173",
"191",
"188",
"175",
"179",
"162",
"158",
"166",
"184",
"195",
"161",
"169",
"170",
"151",
"169",
"157",
"157",
"142",
"188",
"145",
"146",
"152",
"151",
"158",
"142",
"164",
"144",
"139",
"151",
"171",
"119",
"134",
"118",
"121",
"133",
"144",
"143",
"145",
"142",
"120",
"156",
"135",
"140",
"147",
"140",
"143",
"120",
"136",
"170",
"158",
"155",
"148",
"125",
"154",
"138",
"131",
"147",
"146",
"138",
"150",
"140",
"117",
"157",
"135",
"136",
"151",
"136",
"142",
"174",
"145",
"110",
"164",
"161",
"135",
"107",
"147",
"138",
"133",
"162",
"108",
"123",
"143",
"140",
"144",
"143",
"129",
"135",
"146",
"134",
"131",
"99",
"152",
"150",
"151",
"132",
"127",
"139",
"121",
"137",
"133",
"148",
"144",
"137",
"140",
"131",
"129",
"138",
"138",
"126",
"145",
"137",
"131",
"135",
"144",
"135",
"126",
"159",
"137",
"134",
"129",
"137",
"142",
"125",
"107",
"149",
"129",
"120",
"135",
"122",
"142",
"143",
"138",
"112",
"112",
"111",
"111",
"109",
"135",
"147",
"144",
"108",
"138",
"142",
"133",
"117",
"117",
"129",
"132",
"117",
"138",
"101",
"148",
"124",
"123",
"126",
"114",
"124",
"111",
"135",
"125",
"114",
"142",
"118",
"139",
"105",
"131",
"145",
"121",
"99",
"109",
"107",
"125",
"125",
"130",
"136",
"140",
"147",
"106",
"105",
"124",
"112",
"108",
"120",
"124",
"101",
"105",
"126",
"113",
"95",
"136",
"120",
"139",
"103",
"107",
"121",
"113",
"103",
"121",
"109",
"107",
"111",
"115",
"107",
"119",
"110",
"101",
"114",
"125",
"107",
"140",
"98",
"120",
"130",
"112",
"107",
"117",
"107",
"101",
"121",
"102",
"109",
"127",
"110",
"130",
"114",
"123",
"110",
"111",
"118",
"114",
"100",
"105",
"114",
"145",
"130",
"135",
"134",
"121",
"133",
"112",
"123",
"120",
"110",
"117",
"122",
"119",
"123",
"113",
"95",
"124",
"118",
"108",
"112",
"109",
"101",
"108",
"103",
"107",
"100",
"99",
"100",
"118",
"100",
"94",
"95",
"89",
"81",
"98",
"108",
"93",
"95",
"117",
"110",
"86",
"89",
"93",
"120",
"106",
"102",
"83",
"98",
"102",
"84",
"114",
"113",
"96",
"98",
"93",
"88",
"102",
"95",
"106",
"81",
"109",
"97",
"90",
"108",
"102",
"96",
"91",
"95",
"107",
"82",
"97",
"80",
"76",
"89",
"102",
"82",
"90",
"87",
"88",
"81",
"100",
"90",
"111",
"77",
"107",
"105",
"96",
"88",
"97",
"86",
"82",
"94",
"76",
"106",
"87",
"93",
"86",
"110",
"72",
"82",
"102",
"84",
"110",
"77",
"89",
"102",
"90",
"93",
"90",
"83",
"86",
"91",
"95",
"78",
"74",
"80",
"107",
"61",
"93",
"94",
"109",
"66",
"101",
"89",
"91",
"80",
"103",
"83",
"88",
"88",
"82",
"96",
"89",
"87",
"97",
"86",
"85",
"96",
"87",
"100",
"81",
"74",
"72",
"84",
"81",
"89",
"75",
"75",
"81",
"87",
"89",
"72",
"91",
"80",
"75",
"97",
"89",
"81",
"101",
"82",
"97",
"68",
"74",
"83",
"93",
"73",
"77",
"78",
"83",
"80",
"89",
"66",
"78",
"85",
"85",
"84",
"107",
"75",
"83",
"69",
"85",
"76",
"72",
"84",
"99",
"93",
"75",
"75",
"86",
"83",
"87",
"86",
"100",
"91",
"72",
"73",
"91",
"94",
"95",
"86",
"64",
"70",
"103",
"70",
"97",
"91",
"83",
"98",
"86",
"77",
"100",
"105",
"97",
"102",
"101",
"96",
"99",
"101",
"106",
"110",
"134",
"119",
"120",
"127",
"148",
"127",
"143",
"125",
"135",
"130",
"144",
"163",
"182",
"186",
"198",
"245",
"205",
"203",
"246",
"245",
"329",
"272",
"341",
"370",
"386",
"395",
"401",
"427",
"464",
"420",
"492",
"505",
"518",
"510",
"531",
"516",
"578",
"551",
"518",
"494",
"463",
"491",
"469",
"399",
"444",
"402",
"379",
"342",
"329",
"279",
"262",
"252",
"278",
"225",
"220",
"224",
"186",
"167",
"147",
"159",
"139",
"134",
"148",
"127",
"106",
"130",
"151",
"152",
"218",
"179",
"169",
"215",
"231",
"247",
"283",
"306",
"358",
"316",
"376",
"342",
"375",
"329",
"318",
"291",
"337",
"232",
"235",
"204",
"216",
"162",
"140",
"129",
"112",
"81",
"102",
"77",
"82",
"87",
"83",
"74",
"52650",
"Channel_info_start",
"Channel : Mg",
"Points : 0",
"Range : 0.000000 - 0.000000",
"Step : 0.010000",
"Channel_info_end",
"Channel_info_start",
"Channel : Al",
"Points : 0",
"Range : 0.000000 - 0.000000",
"Step : 0.010000",
"Channel_info_end",
"Channel_info_start",
"Channel : Si",
"Points : 0",
"Range : 0.000000 - 0.000000",
"Step : 0.010000",
"Channel_info_end",
"Channel_info_start",
"Channel : P ",
"Points : 0",
"Range : 0.000000 - 0.000000",
"Step : 0.010000",
"Channel_info_end",
"Channel_info_start",
"Channel : S ",
"Points : 0",
"Range : 0.000000 - 0.000000",
"Step : 0.010000",
"Channel_info_end",
"Channel_info_start",
"Channel : Cl",
"Points : 0",
"Range : 0.000000 - 0.000000",
"Step : 0.010000",
"Channel_info_end",
"Channel_info_start",
"Channel : K ",
"Points : 0",
"Range : 0.000000 - 0.000000",
"Step : 0.010000",
"Channel_info_end",
"Channel_info_start",
"Channel : Ca",
"Points : 0",
"Range : 0.000000 - 0.000000",
"Step : 0.010000",
"Channel_info_end",
"Channel_info_start",
"Channel : Ti",
"Points : 0",
"Range : 0.000000 - 0.000000",
"Step : 0.010000",
"Channel_info_end",
"Channel_info_start",
"Channel : V ",
"Points : 0",
"Range : 0.000000 - 0.000000",
"Step : 0.010000",
"Channel_info_end",
"Channel_info_start",
"Channel : Cr",
"Points : 0",
"Range : 0.000000 - 0.000000",
"Step : 0.010000",
"Channel_info_end",
"Channel_info_start",
"Channel : Mn",
"Points : 0",
"Range : 0.000000 - 0.000000",
"Step : 0.010000",
"Channel_info_end",
"Channel_info_start",
"Channel : Fe",
"Points : 0",
"Range : 0.000000 - 0.000000",
"Step : 0.010000",
"Channel_info_end",
"Channel_info_start",
"Channel : Cu",
"Points : 0",
"Range : 0.000000 - 0.000000",
"Step : 0.010000",
"Channel_info_end",
"Channel_info_start",
"Channel : Zn",
"Points : 0",
"Range : 0.000000 - 0.000000",
"Step : 0.010000",
"Channel_info_end",
"Channel_info_start",
"Channel : Sr",
"Points : 0",
"Range : 0.000000 - 0.000000",
"Step : 0.010000",
"Channel_info_end",
"Channel_info_start",
"Channel : Pb",
"Points : 0",
"Range : 0.000000 - 0.000000",
"Step : 0.010000",
"Channel_info_end",
"",
"Qualitative Result",
"--------------------------------------------------------------------------------",
"Element :  Na, P , Ba, Ca, Te, Pr, Rh",
"",
"Peak List",
"--------------------------------------------------------------------------------",
"Channel               Line        keV     Net Int.(cps/uA)",
"--------------------------------------------------------------------------------",
"Na                    NaKa         1.04     0.007",
"                      P Ka         2.01     0.020",
"                      BaLaESC      2.72     0.024",
"                      BaLb1ESC     3.12     0.013",
"                      CaKa         3.68     0.284",
"                      BaLL         3.96     0.099",
"                      TeLb1        3.96     0.043",
"                      BaLa         4.46     3.296",
"                      BaLb1        4.84     2.118",
"                      BaLb2        5.16     0.507",
"                      BaLg1        5.52     0.198",
"                      PrLb1        5.52     0.067",
"                      BaLg2        5.79     0.140",
"                      ----         8.08     0.026",
"                      RhKaC       19.20     0.140",
"                      RhKa        20.08     0.090",
"--------------------------------------------------------------------------------",
"",
"Quantitative Result",
"--------------------------------------------------------------------------------",
"Analyte               Result             Std.Dev. Proc.-Calc. Line Intensity(cps/uA)",
"--------------------------------------------------------------------------------",
"====[No. 1 Layer]====< Layer1               >===============================",
"Layer1                   7.215 ug/cm2    -------- Flux       -------- --------",
"Na                       7.215 ug/cm2    -------- ********** -------- --------",