File: inputs/edxCalibration/edx_raw/2010-06/Bi 15773.20100526014213.csv
"Sample    : Bi 15773",
"Operator  : luisf",
"Comment  : cubatao-g-policarbonato",
"Group     : kerr2007ag180cal_lt",
"Date       : 2010-05-26 01:38:07",
"",
"Mesurement Condition",
"------------------------------------------------------------------------------------",
"Instrument : 700HS2   Atmosphere : Vac.   Collimator : 10(mm)   Spin : No",
"------------------------------------------------------------------------------------",
"Analyte               TG kV   uA      FI Acq.(keV)  Anal.(keV)  Time(sec)     DT(%)",
"------------------------------------------------------------------------------------",
"Na                    Rh 50  187-Auto Al  0 - 20    0.8 - 1.2   Live -  179   16",
"",
"<Profile>",
"Channel_info_start",
"Channel : Na",
"Points : 2048",
"Range : 0.000000 - 20.48",
"Step : 0.010000",
"Channel_info_end",
"0",
"0",
"0",
"0",
"0",
"0",
"0",
"0",
"0",
"0",
"0",
"0",
"0",
"0",
"0",
"15",
"37",
"31",
"23",
"29",
"31",
"31",
"37",
"23",
"32",
"26",
"16",
"38",
"38",
"52",
"44",
"52",
"84",
"106",
"98",
"100",
"72",
"78",
"71",
"75",
"90",
"59",
"51",
"51",
"38",
"26",
"40",
"51",
"32",
"27",
"48",
"45",
"48",
"39",
"24",
"29",
"34",
"24",
"31",
"21",
"26",
"23",
"37",
"29",
"28",
"24",
"22",
"24",
"19",
"33",
"34",
"24",
"38",
"25",
"34",
"36",
"41",
"37",
"35",
"24",
"29",
"34",
"37",
"44",
"58",
"46",
"53",
"46",
"60",
"61",
"99",
"105",
"173",
"240",
"304",
"303",
"302",
"251",
"223",
"194",
"227",
"158",
"153",
"154",
"135",
"142",
"135",
"167",
"165",
"207",
"221",
"248",
"239",
"296",
"311",
"321",
"523",
"872",
"1555",
"2362",
"3282",
"4069",
"4402",
"4262",
"4337",
"3836",
"3777",
"3253",
"2736",
"1959",
"1459",
"851",
"576",
"354",
"338",
"418",
"459",
"448",
"466",
"397",
"329",
"197",
"142",
"89",
"80",
"63",
"76",
"80",
"71",
"81",
"84",
"70",
"63",
"71",
"81",
"98",
"88",
"130",
"145",
"167",
"194",
"209",
"198",
"168",
"156",
"111",
"89",
"65",
"72",
"45",
"34",
"16",
"26",
"29",
"36",
"31",
"38",
"48",
"71",
"108",
"213",
"336",
"485",
"616",
"675",
"709",
"656",
"484",
"350",
"207",
"139",
"84",
"74",
"56",
"59",
"57",
"59",
"75",
"95",
"111",
"119",
"125",
"114",
"89",
"72",
"53",
"44",
"34",
"27",
"24",
"17",
"22",
"27",
"34",
"22",
"34",
"24",
"47",
"50",
"32",
"25",
"29",
"49",
"24",
"44",
"36",
"39",
"48",
"58",
"58",
"46",
"47",
"47",
"46",
"50",
"38",
"31",
"40",
"35",
"44",
"51",
"43",
"46",
"33",
"41",
"31",
"45",
"48",
"37",
"47",
"37",
"39",
"45",
"45",
"37",
"43",
"37",
"36",
"34",
"38",
"53",
"38",
"38",
"44",
"40",
"51",
"32",
"46",
"49",
"50",
"43",
"54",
"51",
"41",
"53",
"51",
"48",
"83",
"66",
"78",
"72",
"96",
"81",
"96",
"82",
"85",
"116",
"86",
"93",
"85",
"111",
"71",
"77",
"73",
"75",
"63",
"71",
"74",
"60",
"70",
"94",
"59",
"68",
"74",
"80",
"59",
"62",
"73",
"66",
"66",
"73",
"92",
"56",
"81",
"71",
"76",
"95",
"60",
"96",
"88",
"83",
"107",
"95",
"82",
"88",
"80",
"99",
"77",
"71",
"78",
"98",
"76",
"95",
"80",
"105",
"86",
"82",
"78",
"80",
"87",
"108",
"73",
"90",
"76",
"75",
"88",
"86",
"106",
"85",
"116",
"59",
"83",
"98",
"101",
"77",
"80",
"81",
"77",
"93",
"77",
"87",
"70",
"95",
"88",
"99",
"88",
"87",
"73",
"105",
"95",
"87",
"92",
"108",
"110",
"128",
"98",
"94",
"94",
"107",
"100",
"106",
"99",
"125",
"93",
"99",
"92",
"117",
"109",
"93",
"106",
"98",
"104",
"84",
"109",
"104",
"119",
"135",
"119",
"105",
"123",
"117",
"111",
"122",
"138",
"128",
"129",
"100",
"95",
"108",
"93",
"95",
"70",
"107",
"94",
"97",
"100",
"84",
"86",
"77",
"102",
"92",
"84",
"118",
"109",
"111",
"111",
"114",
"124",
"143",
"129",
"143",
"156",
"163",
"139",
"143",
"149",
"129",
"135",
"119",
"94",
"107",
"131",
"125",
"135",
"132",
"120",
"124",
"126",
"131",
"120",
"125",
"104",
"132",
"114",
"94",
"130",
"120",
"98",
"111",
"130",
"129",
"142",
"162",
"195",
"283",
"331",
"406",
"536",
"605",
"651",
"732",
"706",
"694",
"643",
"561",
"525",
"411",
"318",
"299",
"216",
"178",
"132",
"131",
"110",
"120",
"114",
"123",
"104",
"109",
"112",
"104",
"95",
"98",
"92",
"74",
"108",
"94",
"104",
"78",
"93",
"125",
"87",
"117",
"77",
"113",
"102",
"102",
"99",
"112",
"104",
"114",
"126",
"97",
"110",
"116",
"114",
"122",
"118",
"99",
"83",
"135",
"106",
"107",
"133",
"170",
"169",
"214",
"282",
"374",
"534",
"827",
"1165",
"1770",
"2250",
"3134",
"4148",
"5394",
"6577",
"8063",
"9001",
"10204",
"10352",
"10492",
"9556",
"8879",
"7439",
"6240",
"4698",
"3565",
"2525",
"1761",
"1172",
"697",
"517",
"353",
"241",
"205",
"150",
"139",
"132",
"112",
"108",
"132",
"147",
"106",
"143",
"116",
"124",
"109",
"111",
"96",
"108",
"105",
"125",
"114",
"104",
"137",
"120",
"135",
"159",
"160",
"177",
"218",
"221",
"229",
"251",
"206",
"242",
"196",
"231",
"172",
"143",
"146",
"116",
"116",
"118",
"101",
"90",
"99",
"94",
"81",
"111",
"87",
"97",
"86",
"107",
"98",
"84",
"92",
"85",
"95",
"112",
"87",
"120",
"128",
"133",
"139",
"148",
"190",
"189",
"216",
"234",
"263",
"309",
"336",
"304",
"324",
"327",
"355",
"384",
"459",
"451",
"509",
"496",
"514",
"527",
"583",
"636",
"756",
"827",
"1138",
"1423",
"1923",
"2490",
"3354",
"4090",
"5082",
"5727",
"6329",
"6551",
"7007",
"6805",
"6546",
"5862",
"5313",
"4380",
"3709",
"2978",
"2371",
"1865",
"1440",
"1100",
"909",
"749",
"682",
"558",
"565",
"506",
"485",
"454",
"428",
"356",
"389",
"329",
"278",
"235",
"220",
"157",
"157",
"151",
"128",
"123",
"107",
"109",
"99",
"94",
"116",
"106",
"114",
"107",
"118",
"110",
"99",
"85",
"85",
"102",
"81",
"57",
"71",
"65",
"76",
"70",
"76",
"65",
"73",
"68",
"72",
"77",
"61",
"77",
"75",
"64",
"73",
"97",
"74",
"69",
"70",
"66",
"71",
"63",
"80",
"70",
"58",
"81",
"74",
"83",
"78",
"65",
"83",
"66",
"73",
"77",
"78",
"71",
"105",
"118",
"108",
"118",
"118",
"92",
"105",
"107",
"96",
"94",
"76",
"76",
"94",
"98",
"134",
"107",
"141",
"204",
"283",
"286",
"416",
"503",
"597",
"690",
"893",
"896",
"1021",
"1015",
"1027",
"990",
"996",
"864",
"774",
"669",
"585",
"441",
"395",
"327",
"284",
"268",
"252",
"222",
"265",
"267",
"296",
"311",
"403",
"359",
"365",
"365",
"341",
"316",
"309",
"264",
"266",
"205",
"183",
"174",
"143",
"133",
"104",
"106",
"77",
"72",
"80",
"64",
"53",
"59",
"72",
"56",
"63",
"74",
"70",
"58",
"74",
"76",
"85",
"84",
"92",
"107",
"101",
"102",
"75",
"86",
"83",
"94",
"74",
"60",
"54",
"58",
"49",
"69",
"36",
"52",
"52",
"50",
"59",
"34",
"46",
"40",
"54",
"54",
"61",
"52",
"51",
"44",
"46",
"53",
"63",
"38",
"53",
"44",
"45",
"58",
"57",
"43",
"59",
"43",
"68",
"45",
"52",
"35",
"62",
"46",
"58",
"43",
"45",
"51",
"47",
"44",
"63",
"46",
"50",
"41",
"44",
"39",
"47",
"41",
"40",
"47",
"47",
"49",
"45",
"36",
"39",
"40",
"49",
"47",
"58",
"49",
"38",
"39",
"49",
"40",
"38",
"46",
"46",
"38",
"53",
"38",
"51",
"59",
"64",
"45",
"47",
"48",
"66",
"57",
"59",
"54",
"63",
"46",
"57",
"60",
"44",
"51",
"61",
"48",
"65",
"58",
"58",
"58",
"47",
"57",
"52",
"61",
"76",
"61",
"53",
"62",
"59",
"49",
"86",
"71",
"75",
"71",
"57",
"83",
"63",
"77",
"80",
"71",
"92",
"101",
"96",
"97",
"113",
"141",
"117",
"133",
"159",
"158",
"171",
"168",
"211",
"210",
"216",
"265",
"274",
"278",
"246",
"288",
"303",
"306",
"300",
"302",
"340",
"290",
"291",
"291",
"248",
"256",
"231",
"250",
"208",
"217",
"177",
"180",
"174",
"165",
"155",
"149",
"146",
"128",
"112",
"83",
"123",
"80",
"80",
"97",
"100",
"78",
"88",
"82",
"78",
"72",
"69",
"99",
"129",
"92",
"124",
"142",
"156",
"170",
"193",
"205",
"234",
"231",
"227",
"272",
"288",
"275",
"243",
"233",
"260",
"190",
"207",
"167",
"153",
"143",
"112",
"101",
"78",
"63",
"59",
"71",
"45",
"64",
"44",
"48",
"23763",
"Channel_info_start",
"Channel : Mg",
"Points : 0",
"Range : 0.000000 - 0.000000",
"Step : 0.010000",
"Channel_info_end",
"Channel_info_start",
"Channel : Al",
"Points : 0",
"Range : 0.000000 - 0.000000",
"Step : 0.010000",
"Channel_info_end",
"Channel_info_start",
"Channel : Si",
"Points : 0",
"Range : 0.000000 - 0.000000",
"Step : 0.010000",
"Channel_info_end",
"Channel_info_start",
"Channel : P ",
"Points : 0",
"Range : 0.000000 - 0.000000",
"Step : 0.010000",
"Channel_info_end",
"Channel_info_start",
"Channel : S ",
"Points : 0",
"Range : 0.000000 - 0.000000",
"Step : 0.010000",
"Channel_info_end",
"Channel_info_start",
"Channel : Cl",
"Points : 0",
"Range : 0.000000 - 0.000000",
"Step : 0.010000",
"Channel_info_end",
"Channel_info_start",
"Channel : K ",
"Points : 0",
"Range : 0.000000 - 0.000000",
"Step : 0.010000",
"Channel_info_end",
"Channel_info_start",
"Channel : Ca",
"Points : 0",
"Range : 0.000000 - 0.000000",
"Step : 0.010000",
"Channel_info_end",
"Channel_info_start",
"Channel : Ti",
"Points : 0",
"Range : 0.000000 - 0.000000",
"Step : 0.010000",
"Channel_info_end",
"Channel_info_start",
"Channel : V ",
"Points : 0",
"Range : 0.000000 - 0.000000",
"Step : 0.010000",
"Channel_info_end",
"Channel_info_start",
"Channel : Cr",
"Points : 0",
"Range : 0.000000 - 0.000000",
"Step : 0.010000",
"Channel_info_end",
"Channel_info_start",
"Channel : Mn",
"Points : 0",
"Range : 0.000000 - 0.000000",
"Step : 0.010000",
"Channel_info_end",
"Channel_info_start",
"Channel : Fe",
"Points : 0",
"Range : 0.000000 - 0.000000",
"Step : 0.010000",
"Channel_info_end",
"Channel_info_start",
"Channel : Cu",
"Points : 0",
"Range : 0.000000 - 0.000000",
"Step : 0.010000",
"Channel_info_end",
"Channel_info_start",
"Channel : Zn",
"Points : 0",
"Range : 0.000000 - 0.000000",
"Step : 0.010000",
"Channel_info_end",
"Channel_info_start",
"Channel : Sr",
"Points : 0",
"Range : 0.000000 - 0.000000",
"Step : 0.010000",
"Channel_info_end",
"Channel_info_start",
"Channel : Pb",
"Points : 0",
"Range : 0.000000 - 0.000000",
"Step : 0.010000",
"Channel_info_end",
"",
"Qualitative Result",
"--------------------------------------------------------------------------------",
"Element :  Bi, Ca, Rb",
"",
"Peak List",
"--------------------------------------------------------------------------------",
"Channel               Line        keV     Net Int.(cps/uA)",
"--------------------------------------------------------------------------------",
"Na                    ----         0.67     0.022",
"                      ----         0.80     0.019",
"                      ----         1.90     0.092",
"                      BiMa         2.44     1.632",
"                      ----         2.75     0.156",
"                      ----         3.20     0.059",
"                      CaKa         3.70     0.286",
"                      CaKb         4.01     0.039",
"                      BiLL         9.40     0.338",
"                      BiLa        10.84     5.868",
"                      ----        11.69     0.080",
"                      BiLb4       12.63     0.093",
"                      BiLb1       13.00     3.968",
"                      RbKa        13.44     0.091",
"                      BiLg1       15.24     0.586",
"                      BiLg2       15.65     0.175",
"                      ----        19.13     0.147",
"                      ----        19.44     0.072",
"--------------------------------------------------------------------------------",
"",
"Quantitative Result",
"--------------------------------------------------------------------------------",
"Analyte               Result             Std.Dev. Proc.-Calc. Line Intensity(cps/uA)",
"--------------------------------------------------------------------------------",
"====[No. 1 Layer]====< Layer1               >===============================",
"Layer1                   0.000 ug/cm2    -------- Flux       -------- --------",