File: inputs/edxCalibration/edx_raw/2010-06/Bi 15773.20100626153131.csv
"Sample    : Bi 15773",
"Operator  : luis",
"Comment  : cubatao-g-policarbonato",
"Group     : kerr2007ag180cal_lt",
"Date       : 2010-06-26 15:25:30",
"",
"Mesurement Condition",
"------------------------------------------------------------------------------------",
"Instrument : 700HS2   Atmosphere : Vac.   Collimator : 10(mm)   Spin : No",
"------------------------------------------------------------------------------------",
"Analyte               TG kV   uA      FI Acq.(keV)  Anal.(keV)  Time(sec)     DT(%)",
"------------------------------------------------------------------------------------",
"Na                    Rh 50  187-Auto Al  0 - 20    0.8 - 1.2   Live -  179   15",
"",
"<Profile>",
"Channel_info_start",
"Channel : Na",
"Points : 2048",
"Range : 0.000000 - 20.48",
"Step : 0.010000",
"Channel_info_end",
"0",
"0",
"0",
"0",
"0",
"0",
"0",
"0",
"0",
"0",
"0",
"0",
"0",
"0",
"0",
"10",
"23",
"28",
"21",
"41",
"29",
"25",
"29",
"45",
"32",
"36",
"33",
"49",
"48",
"29",
"42",
"63",
"82",
"67",
"106",
"106",
"91",
"83",
"89",
"77",
"77",
"65",
"51",
"42",
"33",
"25",
"38",
"27",
"27",
"42",
"39",
"34",
"35",
"23",
"30",
"26",
"21",
"26",
"27",
"25",
"36",
"18",
"22",
"30",
"36",
"25",
"33",
"32",
"34",
"36",
"32",
"27",
"33",
"46",
"51",
"32",
"34",
"34",
"32",
"32",
"48",
"49",
"44",
"39",
"35",
"40",
"61",
"55",
"66",
"75",
"73",
"126",
"187",
"251",
"303",
"294",
"307",
"260",
"239",
"206",
"197",
"194",
"155",
"146",
"132",
"127",
"158",
"159",
"176",
"199",
"235",
"273",
"288",
"289",
"275",
"343",
"553",
"832",
"1476",
"2292",
"3225",
"4005",
"4409",
"4342",
"4244",
"3890",
"3621",
"3327",
"2563",
"2044",
"1457",
"898",
"629",
"403",
"378",
"390",
"464",
"434",
"444",
"393",
"308",
"250",
"155",
"99",
"69",
"51",
"81",
"63",
"84",
"69",
"98",
"76",
"67",
"51",
"66",
"73",
"115",
"109",
"125",
"178",
"185",
"187",
"162",
"156",
"147",
"108",
"111",
"74",
"54",
"42",
"36",
"23",
"18",
"20",
"25",
"27",
"35",
"40",
"76",
"124",
"175",
"292",
"435",
"551",
"676",
"704",
"640",
"482",
"375",
"200",
"141",
"78",
"73",
"58",
"52",
"48",
"73",
"74",
"95",
"95",
"108",
"100",
"129",
"73",
"65",
"44",
"36",
"28",
"33",
"24",
"17",
"30",
"25",
"26",
"25",
"23",
"39",
"25",
"41",
"25",
"34",
"44",
"40",
"36",
"44",
"49",
"45",
"47",
"44",
"28",
"42",
"46",
"49",
"35",
"45",
"37",
"42",
"30",
"29",
"49",
"36",
"39",
"36",
"38",
"27",
"34",
"48",
"28",
"40",
"34",
"42",
"30",
"48",
"41",
"36",
"37",
"27",
"44",
"35",
"46",
"42",
"32",
"50",
"40",
"33",
"35",
"46",
"42",
"37",
"45",
"45",
"50",
"47",
"40",
"54",
"51",
"46",
"72",
"66",
"75",
"81",
"73",
"83",
"89",
"92",
"94",
"96",
"83",
"72",
"82",
"79",
"73",
"72",
"74",
"63",
"64",
"66",
"64",
"64",
"74",
"67",
"65",
"77",
"65",
"46",
"77",
"100",
"75",
"64",
"62",
"84",
"72",
"81",
"72",
"69",
"79",
"83",
"78",
"98",
"94",
"82",
"95",
"81",
"65",
"88",
"86",
"60",
"82",
"92",
"70",
"84",
"82",
"71",
"75",
"84",
"86",
"76",
"84",
"82",
"78",
"84",
"85",
"103",
"84",
"91",
"86",
"100",
"92",
"87",
"84",
"92",
"94",
"74",
"89",
"84",
"71",
"79",
"85",
"75",
"88",
"90",
"90",
"90",
"71",
"96",
"84",
"86",
"98",
"75",
"91",
"97",
"97",
"95",
"101",
"91",
"104",
"103",
"102",
"118",
"90",
"96",
"120",
"94",
"98",
"94",
"89",
"91",
"106",
"99",
"92",
"94",
"82",
"96",
"90",
"88",
"107",
"97",
"108",
"112",
"111",
"139",
"120",
"107",
"113",
"96",
"119",
"106",
"121",
"108",
"92",
"116",
"96",
"119",
"85",
"92",
"90",
"94",
"104",
"94",
"82",
"85",
"90",
"85",
"119",
"112",
"101",
"135",
"103",
"143",
"126",
"145",
"137",
"139",
"144",
"151",
"151",
"136",
"136",
"128",
"144",
"126",
"98",
"109",
"132",
"123",
"120",
"116",
"112",
"126",
"135",
"115",
"133",
"124",
"127",
"104",
"131",
"101",
"129",
"108",
"101",
"122",
"134",
"162",
"196",
"274",
"314",
"383",
"472",
"523",
"676",
"755",
"739",
"715",
"661",
"602",
"508",
"408",
"373",
"279",
"209",
"180",
"144",
"132",
"109",
"123",
"128",
"139",
"91",
"91",
"100",
"96",
"101",
"101",
"107",
"99",
"97",
"118",
"91",
"96",
"101",
"94",
"98",
"88",
"84",
"96",
"86",
"89",
"90",
"99",
"95",
"132",
"101",
"92",
"115",
"98",
"103",
"91",
"114",
"124",
"109",
"100",
"129",
"132",
"127",
"160",
"161",
"215",
"244",
"375",
"480",
"691",
"1033",
"1545",
"2075",
"2870",
"3771",
"5083",
"6190",
"7810",
"8672",
"9903",
"10044",
"10457",
"9828",
"9138",
"7734",
"6523",
"5208",
"3899",
"2719",
"1926",
"1211",
"812",
"583",
"393",
"275",
"235",
"156",
"168",
"131",
"133",
"120",
"121",
"116",
"141",
"115",
"124",
"109",
"121",
"103",
"123",
"106",
"109",
"96",
"124",
"101",
"110",
"128",
"136",
"149",
"193",
"199",
"183",
"222",
"242",
"225",
"229",
"240",
"219",
"198",
"171",
"143",
"175",
"149",
"144",
"115",
"101",
"92",
"107",
"92",
"99",
"95",
"114",
"78",
"90",
"101",
"101",
"101",
"108",
"96",
"110",
"100",
"125",
"92",
"120",
"118",
"137",
"129",
"148",
"188",
"182",
"201",
"260",
"270",
"296",
"293",
"342",
"338",
"390",
"395",
"415",
"432",
"508",
"482",
"503",
"590",
"587",
"552",
"693",
"823",
"1033",
"1287",
"1798",
"2316",
"3030",
"3689",
"4709",
"5232",
"6212",
"6419",
"6875",
"6867",
"6589",
"5920",
"5611",
"4674",
"4014",
"3043",
"2660",
"1944",
"1581",
"1213",
"935",
"834",
"711",
"618",
"584",
"503",
"517",
"433",
"465",
"391",
"347",
"313",
"279",
"210",
"234",
"203",
"165",
"151",
"128",
"108",
"109",
"106",
"107",
"99",
"111",
"82",
"127",
"94",
"95",
"98",
"88",
"84",
"81",
"74",
"74",
"75",
"65",
"70",
"72",
"70",
"64",
"57",
"78",
"79",
"70",
"65",
"72",
"81",
"73",
"73",
"85",
"70",
"63",
"54",
"60",
"74",
"75",
"59",
"86",
"63",
"74",
"55",
"59",
"55",
"48",
"76",
"82",
"72",
"98",
"65",
"94",
"76",
"108",
"95",
"100",
"96",
"119",
"81",
"114",
"98",
"101",
"113",
"91",
"98",
"83",
"88",
"109",
"122",
"143",
"200",
"251",
"262",
"375",
"423",
"612",
"653",
"779",
"830",
"1019",
"1007",
"1096",
"1008",
"999",
"850",
"869",
"693",
"638",
"486",
"422",
"336",
"310",
"245",
"251",
"229",
"254",
"277",
"301",
"300",
"311",
"330",
"372",
"333",
"368",
"294",
"331",
"296",
"260",
"235",
"202",
"193",
"147",
"155",
"121",
"95",
"82",
"78",
"74",
"82",
"65",
"59",
"62",
"79",
"63",
"59",
"77",
"65",
"86",
"67",
"88",
"71",
"91",
"107",
"76",
"72",
"92",
"76",
"84",
"54",
"73",
"76",
"64",
"69",
"52",
"54",
"53",
"54",
"46",
"44",
"52",
"44",
"54",
"54",
"53",
"46",
"54",
"46",
"49",
"37",
"44",
"41",
"49",
"50",
"73",
"41",
"49",
"48",
"52",
"49",
"53",
"46",
"46",
"45",
"51",
"51",
"63",
"53",
"51",
"44",
"59",
"40",
"45",
"65",
"52",
"46",
"39",
"69",
"49",
"46",
"47",
"50",
"46",
"47",
"52",
"54",
"52",
"45",
"58",
"36",
"51",
"55",
"52",
"34",
"49",
"42",
"54",
"48",
"42",
"49",
"61",
"54",
"40",
"47",
"46",
"44",
"70",
"64",
"45",
"42",
"47",
"39",
"60",
"47",
"66",
"49",
"57",
"59",
"52",
"48",
"57",
"44",
"67",
"50",
"57",
"50",
"50",
"79",
"64",
"50",
"55",
"48",
"55",
"71",
"66",
"63",
"63",
"63",
"79",
"69",
"72",
"62",
"81",
"69",
"89",
"78",
"98",
"90",
"115",
"103",
"100",
"132",
"115",
"137",
"182",
"148",
"158",
"159",
"190",
"206",
"208",
"225",
"263",
"229",
"263",
"255",
"285",
"284",
"305",
"289",
"322",
"279",
"275",
"259",
"274",
"261",
"260",
"237",
"226",
"233",
"231",
"185",
"196",
"174",
"156",
"158",
"157",
"120",
"124",
"115",
"134",
"107",
"87",
"86",
"98",
"67",
"79",
"64",
"83",
"64",
"88",
"78",
"91",
"100",
"120",
"135",
"157",
"173",
"196",
"195",
"236",
"201",
"239",
"259",
"274",
"255",
"229",
"242",
"243",
"194",
"214",
"186",
"165",
"139",
"107",
"90",
"119",
"59",
"55",
"54",
"48",
"46",
"48",
"51",
"23342",
"Channel_info_start",
"Channel : Mg",
"Points : 0",
"Range : 0.000000 - 0.000000",
"Step : 0.010000",
"Channel_info_end",
"Channel_info_start",
"Channel : Al",
"Points : 0",
"Range : 0.000000 - 0.000000",
"Step : 0.010000",
"Channel_info_end",
"Channel_info_start",
"Channel : Si",
"Points : 0",
"Range : 0.000000 - 0.000000",
"Step : 0.010000",
"Channel_info_end",
"Channel_info_start",
"Channel : P ",
"Points : 0",
"Range : 0.000000 - 0.000000",
"Step : 0.010000",
"Channel_info_end",
"Channel_info_start",
"Channel : S ",
"Points : 0",
"Range : 0.000000 - 0.000000",
"Step : 0.010000",
"Channel_info_end",
"Channel_info_start",
"Channel : Cl",
"Points : 0",
"Range : 0.000000 - 0.000000",
"Step : 0.010000",
"Channel_info_end",
"Channel_info_start",
"Channel : K ",
"Points : 0",
"Range : 0.000000 - 0.000000",
"Step : 0.010000",
"Channel_info_end",
"Channel_info_start",
"Channel : Ca",
"Points : 0",
"Range : 0.000000 - 0.000000",
"Step : 0.010000",
"Channel_info_end",
"Channel_info_start",
"Channel : Ti",
"Points : 0",
"Range : 0.000000 - 0.000000",
"Step : 0.010000",
"Channel_info_end",
"Channel_info_start",
"Channel : V ",
"Points : 0",
"Range : 0.000000 - 0.000000",
"Step : 0.010000",
"Channel_info_end",
"Channel_info_start",
"Channel : Cr",
"Points : 0",
"Range : 0.000000 - 0.000000",
"Step : 0.010000",
"Channel_info_end",
"Channel_info_start",
"Channel : Mn",
"Points : 0",
"Range : 0.000000 - 0.000000",
"Step : 0.010000",
"Channel_info_end",
"Channel_info_start",
"Channel : Fe",
"Points : 0",
"Range : 0.000000 - 0.000000",
"Step : 0.010000",
"Channel_info_end",
"Channel_info_start",
"Channel : Cu",
"Points : 0",
"Range : 0.000000 - 0.000000",
"Step : 0.010000",
"Channel_info_end",
"Channel_info_start",
"Channel : Zn",
"Points : 0",
"Range : 0.000000 - 0.000000",
"Step : 0.010000",
"Channel_info_end",
"Channel_info_start",
"Channel : Sr",
"Points : 0",
"Range : 0.000000 - 0.000000",
"Step : 0.010000",
"Channel_info_end",
"Channel_info_start",
"Channel : Pb",
"Points : 0",
"Range : 0.000000 - 0.000000",
"Step : 0.010000",
"Channel_info_end",
"",
"Qualitative Result",
"--------------------------------------------------------------------------------",
"Element :  Bi, Ca, Rh",
"",
"Peak List",
"--------------------------------------------------------------------------------",
"Channel               Line        keV     Net Int.(cps/uA)",
"--------------------------------------------------------------------------------",
"Na                    ----         0.68     0.023",
"                      ----         0.80     0.017",
"                      ----         1.90     0.084",
"                      ----         2.21     0.053",
"                      BiMa         2.44     1.607",
"                      ----         2.77     0.127",
"                      ----         3.22     0.056",
"                      CaKa         3.68     0.287",
"                      CaKb         4.04     0.042",
"                      BiLL         9.41     0.340",
"                      BiLa        10.84     5.773",
"                      ----        11.73     0.081",
"                      BiLb4       12.68     0.114",
"                      BiLb1       13.01     3.867",
"                      ----        13.43     0.078",
"                      BiLg1       15.24     0.604",
"                      BiLg2       15.67     0.148",
"                      RhKaC       19.20     0.147",
"                      RhKa        20.07     0.135",
"--------------------------------------------------------------------------------",
"",
"Quantitative Result",
"--------------------------------------------------------------------------------",
"Analyte               Result             Std.Dev. Proc.-Calc. Line Intensity(cps/uA)",
"--------------------------------------------------------------------------------",
"====[No. 1 Layer]====< Layer1               >===============================",
"Layer1                   0.000 ug/cm2    -------- Flux       -------- --------",