File: inputs/edxCalibration/edx_raw/2010-06/CaF2 31497.20100610235629.csv
"Sample    : CaF2 31497",
"Operator  : thiago",
"Comment  : cubatao-g-policarbonato",
"Group     : kerr2007ag180cal_lt",
"Date       : 2010-06-10 23:52:16",
"",
"Mesurement Condition",
"------------------------------------------------------------------------------------",
"Instrument : 700HS2   Atmosphere : Vac.   Collimator : 10(mm)   Spin : No",
"------------------------------------------------------------------------------------",
"Analyte               TG kV   uA      FI Acq.(keV)  Anal.(keV)  Time(sec)     DT(%)",
"------------------------------------------------------------------------------------",
"Na                    Rh 50  548-Auto Al  0 - 20    0.8 - 1.2   Live -  179   15",
"",
"<Profile>",
"Channel_info_start",
"Channel : Na",
"Points : 2048",
"Range : 0.000000 - 20.48",
"Step : 0.010000",
"Channel_info_end",
"0",
"0",
"0",
"0",
"0",
"0",
"0",
"0",
"0",
"0",
"0",
"0",
"0",
"0",
"1",
"13",
"26",
"20",
"27",
"34",
"35",
"22",
"32",
"32",
"33",
"35",
"26",
"24",
"25",
"30",
"30",
"33",
"39",
"26",
"31",
"21",
"32",
"23",
"26",
"34",
"28",
"31",
"23",
"33",
"31",
"32",
"34",
"24",
"30",
"24",
"27",
"34",
"30",
"31",
"25",
"27",
"22",
"32",
"35",
"37",
"36",
"35",
"35",
"43",
"24",
"28",
"43",
"32",
"45",
"37",
"38",
"30",
"45",
"44",
"45",
"44",
"38",
"47",
"27",
"32",
"39",
"55",
"58",
"81",
"117",
"143",
"168",
"147",
"170",
"136",
"125",
"118",
"150",
"137",
"157",
"243",
"349",
"389",
"430",
"384",
"337",
"275",
"176",
"154",
"114",
"73",
"69",
"45",
"49",
"49",
"67",
"67",
"72",
"70",
"80",
"69",
"58",
"62",
"57",
"39",
"40",
"33",
"35",
"35",
"33",
"35",
"33",
"24",
"35",
"58",
"49",
"62",
"70",
"61",
"65",
"38",
"49",
"48",
"43",
"56",
"57",
"47",
"79",
"72",
"70",
"69",
"87",
"77",
"94",
"86",
"103",
"116",
"118",
"95",
"114",
"137",
"151",
"148",
"175",
"176",
"174",
"187",
"162",
"182",
"212",
"157",
"171",
"199",
"185",
"214",
"185",
"227",
"275",
"275",
"270",
"370",
"554",
"1013",
"2044",
"3939",
"7656",
"12180",
"18874",
"24010",
"27192",
"27276",
"24577",
"18663",
"13230",
"7576",
"4080",
"1892",
"920",
"560",
"506",
"698",
"1100",
"1645",
"2392",
"3041",
"3416",
"3515",
"3127",
"2451",
"1825",
"1184",
"681",
"354",
"176",
"100",
"65",
"52",
"47",
"50",
"63",
"51",
"84",
"55",
"82",
"68",
"86",
"78",
"103",
"95",
"107",
"110",
"139",
"92",
"119",
"97",
"119",
"101",
"108",
"108",
"90",
"91",
"94",
"74",
"87",
"86",
"89",
"90",
"77",
"91",
"81",
"71",
"78",
"80",
"54",
"65",
"79",
"73",
"65",
"60",
"81",
"73",
"79",
"61",
"70",
"77",
"71",
"74",
"71",
"74",
"77",
"62",
"75",
"81",
"71",
"80",
"103",
"94",
"71",
"84",
"79",
"80",
"79",
"82",
"97",
"92",
"102",
"101",
"92",
"78",
"98",
"106",
"81",
"103",
"106",
"114",
"108",
"112",
"102",
"116",
"106",
"102",
"119",
"127",
"121",
"124",
"129",
"130",
"113",
"155",
"154",
"154",
"128",
"125",
"142",
"176",
"150",
"150",
"172",
"182",
"187",
"177",
"218",
"255",
"269",
"211",
"280",
"272",
"225",
"262",
"207",
"202",
"192",
"155",
"151",
"150",
"197",
"145",
"167",
"184",
"174",
"177",
"188",
"187",
"187",
"179",
"185",
"191",
"196",
"200",
"201",
"197",
"198",
"230",
"200",
"220",
"211",
"213",
"209",
"220",
"219",
"189",
"220",
"215",
"203",
"198",
"200",
"198",
"200",
"205",
"189",
"187",
"173",
"170",
"180",
"200",
"167",
"203",
"189",
"185",
"198",
"164",
"159",
"183",
"141",
"162",
"156",
"155",
"183",
"162",
"160",
"168",
"171",
"192",
"208",
"172",
"172",
"175",
"200",
"203",
"191",
"218",
"258",
"236",
"255",
"268",
"310",
"351",
"472",
"491",
"598",
"593",
"641",
"559",
"604",
"560",
"484",
"419",
"360",
"322",
"237",
"199",
"188",
"218",
"256",
"195",
"207",
"194",
"217",
"208",
"225",
"197",
"217",
"252",
"252",
"283",
"285",
"291",
"278",
"282",
"264",
"259",
"214",
"217",
"229",
"214",
"194",
"178",
"180",
"170",
"174",
"186",
"196",
"175",
"174",
"154",
"197",
"176",
"174",
"195",
"176",
"205",
"208",
"233",
"231",
"224",
"301",
"300",
"316",
"325",
"419",
"395",
"408",
"476",
"412",
"347",
"378",
"324",
"311",
"277",
"292",
"249",
"266",
"237",
"268",
"267",
"267",
"265",
"252",
"265",
"220",
"241",
"231",
"219",
"200",
"198",
"184",
"192",
"177",
"180",
"178",
"197",
"167",
"131",
"185",
"171",
"184",
"186",
"197",
"157",
"175",
"182",
"195",
"176",
"162",
"185",
"189",
"192",
"180",
"180",
"163",
"194",
"194",
"178",
"194",
"195",
"189",
"182",
"187",
"198",
"178",
"144",
"175",
"218",
"176",
"176",
"209",
"173",
"201",
"221",
"188",
"207",
"176",
"186",
"212",
"176",
"199",
"207",
"220",
"226",
"224",
"232",
"209",
"218",
"224",
"197",
"188",
"189",
"192",
"183",
"201",
"187",
"163",
"196",
"186",
"199",
"195",
"172",
"173",
"175",
"194",
"180",
"159",
"177",
"148",
"186",
"151",
"178",
"183",
"165",
"152",
"155",
"157",
"163",
"162",
"153",
"151",
"164",
"166",
"157",
"157",
"161",
"163",
"160",
"174",
"144",
"171",
"149",
"155",
"149",
"156",
"189",
"159",
"151",
"182",
"166",
"159",
"172",
"168",
"154",
"175",
"170",
"159",
"177",
"159",
"161",
"175",
"159",
"165",
"168",
"178",
"165",
"159",
"159",
"178",
"172",
"155",
"170",
"177",
"154",
"162",
"155",
"161",
"142",
"154",
"164",
"136",
"152",
"149",
"137",
"163",
"142",
"156",
"151",
"139",
"145",
"167",
"147",
"140",
"159",
"144",
"180",
"160",
"126",
"156",
"154",
"170",
"136",
"165",
"144",
"173",
"151",
"147",
"144",
"178",
"153",
"155",
"133",
"139",
"145",
"120",
"145",
"154",
"139",
"148",
"140",
"137",
"153",
"173",
"163",
"138",
"135",
"145",
"161",
"157",
"137",
"135",
"160",
"144",
"131",
"144",
"135",
"128",
"142",
"149",
"140",
"138",
"144",
"110",
"132",
"140",
"139",
"126",
"119",
"144",
"143",
"138",
"163",
"157",
"106",
"149",
"137",
"131",
"159",
"150",
"135",
"132",
"139",
"148",
"130",
"166",
"127",
"166",
"125",
"137",
"136",
"155",
"143",
"124",
"133",
"149",
"137",
"151",
"135",
"152",
"143",
"131",
"135",
"125",
"148",
"130",
"132",
"164",
"126",
"129",
"139",
"152",
"156",
"129",
"131",
"126",
"124",
"118",
"132",
"131",
"130",
"128",
"140",
"140",
"135",
"131",
"122",
"106",
"121",
"149",
"121",
"116",
"125",
"120",
"121",
"118",
"132",
"118",
"107",
"144",
"117",
"140",
"124",
"128",
"156",
"147",
"127",
"118",
"141",
"138",
"100",
"145",
"103",
"128",
"116",
"125",
"115",
"116",
"113",
"130",
"116",
"110",
"113",
"136",
"107",
"117",
"119",
"104",
"105",
"110",
"115",
"125",
"139",
"117",
"108",
"136",
"131",
"117",
"100",
"121",
"92",
"125",
"105",
"115",
"115",
"110",
"116",
"113",
"118",
"102",
"117",
"102",
"125",
"116",
"119",
"130",
"124",
"115",
"104",
"132",
"108",
"137",
"108",
"114",
"117",
"133",
"107",
"110",
"124",
"117",
"97",
"110",
"100",
"93",
"105",
"122",
"109",
"122",
"97",
"108",
"109",
"122",
"101",
"104",
"115",
"96",
"101",
"109",
"120",
"93",
"133",
"115",
"94",
"108",
"115",
"122",
"110",
"117",
"96",
"114",
"106",
"110",
"116",
"103",
"107",
"115",
"107",
"121",
"96",
"126",
"125",
"117",
"119",
"117",
"102",
"105",
"112",
"115",
"113",
"90",
"107",
"112",
"117",
"119",
"103",
"130",
"130",
"138",
"104",
"116",
"108",
"135",
"117",
"116",
"121",
"115",
"105",
"125",
"116",
"116",
"128",
"141",
"109",
"112",
"128",
"120",
"128",
"152",
"110",
"150",
"147",
"138",
"155",
"150",
"131",
"186",
"151",
"162",
"147",
"168",
"186",
"178",
"167",
"190",
"198",
"192",
"231",
"241",
"243",
"313",
"295",
"335",
"337",
"387",
"396",
"511",
"442",
"466",
"493",
"554",
"575",
"692",
"670",
"724",
"711",
"727",
"744",
"709",
"805",
"809",
"783",
"890",
"809",
"707",
"716",
"710",
"691",
"696",
"628",
"604",
"576",
"545",
"493",
"518",
"452",
"437",
"393",
"363",
"312",
"289",
"277",
"255",
"241",
"230",
"208",
"215",
"185",
"171",
"171",
"171",
"187",
"179",
"194",
"178",
"217",
"209",
"230",
"261",
"280",
"281",
"282",
"313",
"330",
"345",
"340",
"350",
"315",
"320",
"269",
"293",
"276",
"280",
"174",
"199",
"154",
"154",
"140",
"118",
"118",
"132",
"117",
"103",
"87",
"98",
"100",
"53858",
"Channel_info_start",
"Channel : Mg",
"Points : 0",
"Range : 0.000000 - 0.000000",
"Step : 0.010000",
"Channel_info_end",
"Channel_info_start",
"Channel : Al",
"Points : 0",
"Range : 0.000000 - 0.000000",
"Step : 0.010000",
"Channel_info_end",
"Channel_info_start",
"Channel : Si",
"Points : 0",
"Range : 0.000000 - 0.000000",
"Step : 0.010000",
"Channel_info_end",
"Channel_info_start",
"Channel : P ",
"Points : 0",
"Range : 0.000000 - 0.000000",
"Step : 0.010000",
"Channel_info_end",
"Channel_info_start",
"Channel : S ",
"Points : 0",
"Range : 0.000000 - 0.000000",
"Step : 0.010000",
"Channel_info_end",
"Channel_info_start",
"Channel : Cl",
"Points : 0",
"Range : 0.000000 - 0.000000",
"Step : 0.010000",
"Channel_info_end",
"Channel_info_start",
"Channel : K ",
"Points : 0",
"Range : 0.000000 - 0.000000",
"Step : 0.010000",
"Channel_info_end",
"Channel_info_start",
"Channel : Ca",
"Points : 0",
"Range : 0.000000 - 0.000000",
"Step : 0.010000",
"Channel_info_end",
"Channel_info_start",
"Channel : Ti",
"Points : 0",
"Range : 0.000000 - 0.000000",
"Step : 0.010000",
"Channel_info_end",
"Channel_info_start",
"Channel : V ",
"Points : 0",
"Range : 0.000000 - 0.000000",
"Step : 0.010000",
"Channel_info_end",
"Channel_info_start",
"Channel : Cr",
"Points : 0",
"Range : 0.000000 - 0.000000",
"Step : 0.010000",
"Channel_info_end",
"Channel_info_start",
"Channel : Mn",
"Points : 0",
"Range : 0.000000 - 0.000000",
"Step : 0.010000",
"Channel_info_end",
"Channel_info_start",
"Channel : Fe",
"Points : 0",
"Range : 0.000000 - 0.000000",
"Step : 0.010000",
"Channel_info_end",
"Channel_info_start",
"Channel : Cu",
"Points : 0",
"Range : 0.000000 - 0.000000",
"Step : 0.010000",
"Channel_info_end",
"Channel_info_start",
"Channel : Zn",
"Points : 0",
"Range : 0.000000 - 0.000000",
"Step : 0.010000",
"Channel_info_end",
"Channel_info_start",
"Channel : Sr",
"Points : 0",
"Range : 0.000000 - 0.000000",
"Step : 0.010000",
"Channel_info_end",
"Channel_info_start",
"Channel : Pb",
"Points : 0",
"Range : 0.000000 - 0.000000",
"Step : 0.010000",
"Channel_info_end",
"",
"Qualitative Result",
"--------------------------------------------------------------------------------",
"Element :  Ta, P , Ca, Ti, Fe, Zn",
"",
"Peak List",
"--------------------------------------------------------------------------------",
"Channel               Line        keV     Net Int.(cps/uA)",
"--------------------------------------------------------------------------------",
"Na                    TaMa         1.72     0.014",
"                      P Ka         1.96     0.047",
"                      CaKa         3.68     3.917",
"                      CaKb         4.02     0.497",
"                      TiKa         4.52     0.011",
"                      FeKa         6.36     0.023",
"                      TaLa         8.12     0.082",
"                      ZnKa         8.64     0.017",
"                      TaLb1        9.33     0.045",
"                      ----        19.19     0.129",
"                      ----        19.48     0.051",
"                      ----        19.94     0.027",
"--------------------------------------------------------------------------------",
"",
"Quantitative Result",
"--------------------------------------------------------------------------------",
"Analyte               Result             Std.Dev. Proc.-Calc. Line Intensity(cps/uA)",
"--------------------------------------------------------------------------------",
"====[No. 1 Layer]====< Layer1               >===============================",
"Layer1                   0.000 ug/cm2    -------- Flux       -------- --------",