File: inputs/edxCalibration/edx_raw/2010-06/CaF2 31497.20100525205958.csv
"Sample    : CaF2 31497",
"Operator  : luisf",
"Comment  : cubatao-g-policarbonato",
"Group     : kerr2007ag180cal_lt",
"Date       : 2010-05-25 20:55:44",
"",
"Mesurement Condition",
"------------------------------------------------------------------------------------",
"Instrument : 700HS2   Atmosphere : Vac.   Collimator : 10(mm)   Spin : No",
"------------------------------------------------------------------------------------",
"Analyte               TG kV   uA      FI Acq.(keV)  Anal.(keV)  Time(sec)     DT(%)",
"------------------------------------------------------------------------------------",
"Na                    Rh 50  548-Auto Al  0 - 20    0.8 - 1.2   Live -  179   16",
"",
"<Profile>",
"Channel_info_start",
"Channel : Na",
"Points : 2048",
"Range : 0.000000 - 20.48",
"Step : 0.010000",
"Channel_info_end",
"0",
"0",
"0",
"0",
"0",
"0",
"0",
"0",
"0",
"0",
"0",
"0",
"0",
"0",
"0",
"10",
"27",
"39",
"39",
"32",
"22",
"27",
"26",
"18",
"26",
"34",
"28",
"46",
"19",
"34",
"26",
"32",
"28",
"35",
"34",
"30",
"26",
"25",
"30",
"30",
"30",
"30",
"20",
"34",
"36",
"28",
"21",
"34",
"22",
"25",
"30",
"35",
"34",
"23",
"46",
"31",
"34",
"27",
"38",
"38",
"26",
"39",
"30",
"27",
"32",
"33",
"34",
"44",
"30",
"31",
"32",
"30",
"35",
"33",
"39",
"33",
"46",
"35",
"36",
"53",
"39",
"49",
"50",
"97",
"118",
"124",
"161",
"184",
"151",
"139",
"138",
"113",
"128",
"162",
"193",
"254",
"338",
"416",
"415",
"398",
"363",
"275",
"228",
"152",
"115",
"61",
"62",
"63",
"67",
"65",
"79",
"68",
"68",
"66",
"67",
"61",
"73",
"61",
"54",
"30",
"27",
"49",
"55",
"34",
"34",
"34",
"41",
"35",
"41",
"51",
"53",
"53",
"61",
"58",
"55",
"58",
"46",
"43",
"51",
"70",
"51",
"47",
"73",
"61",
"80",
"83",
"79",
"71",
"101",
"86",
"101",
"94",
"115",
"132",
"129",
"135",
"149",
"146",
"161",
"154",
"152",
"162",
"195",
"167",
"197",
"170",
"175",
"182",
"187",
"188",
"204",
"234",
"244",
"252",
"317",
"402",
"539",
"991",
"2030",
"3987",
"7688",
"12433",
"18863",
"24297",
"28145",
"27447",
"25059",
"19080",
"13478",
"7876",
"4424",
"2006",
"1017",
"562",
"530",
"721",
"1170",
"1715",
"2495",
"3005",
"3413",
"3580",
"3231",
"2595",
"1845",
"1176",
"729",
"345",
"174",
"106",
"68",
"55",
"51",
"46",
"56",
"70",
"66",
"78",
"79",
"70",
"95",
"107",
"103",
"82",
"120",
"91",
"105",
"116",
"108",
"104",
"96",
"85",
"92",
"111",
"91",
"84",
"100",
"83",
"83",
"91",
"92",
"88",
"96",
"89",
"82",
"76",
"63",
"82",
"78",
"54",
"69",
"69",
"72",
"73",
"68",
"71",
"70",
"67",
"77",
"76",
"72",
"69",
"95",
"61",
"89",
"89",
"70",
"78",
"77",
"71",
"74",
"82",
"81",
"82",
"92",
"90",
"79",
"85",
"78",
"84",
"88",
"77",
"95",
"97",
"115",
"88",
"105",
"97",
"85",
"102",
"103",
"95",
"99",
"109",
"99",
"120",
"128",
"116",
"124",
"120",
"119",
"136",
"155",
"143",
"134",
"149",
"126",
"136",
"155",
"147",
"160",
"174",
"169",
"171",
"174",
"208",
"208",
"228",
"256",
"242",
"262",
"236",
"251",
"261",
"213",
"192",
"162",
"152",
"154",
"176",
"155",
"151",
"143",
"171",
"190",
"199",
"186",
"196",
"190",
"169",
"196",
"162",
"232",
"216",
"224",
"196",
"215",
"213",
"190",
"193",
"229",
"215",
"218",
"206",
"216",
"220",
"236",
"199",
"196",
"211",
"212",
"210",
"218",
"153",
"222",
"165",
"193",
"189",
"194",
"164",
"204",
"185",
"210",
"173",
"177",
"178",
"178",
"176",
"198",
"161",
"186",
"165",
"165",
"165",
"199",
"199",
"182",
"190",
"209",
"197",
"207",
"204",
"188",
"187",
"235",
"198",
"236",
"279",
"293",
"297",
"339",
"388",
"429",
"509",
"632",
"608",
"634",
"644",
"666",
"535",
"495",
"408",
"363",
"312",
"296",
"258",
"210",
"200",
"238",
"183",
"210",
"210",
"220",
"195",
"211",
"207",
"253",
"228",
"289",
"253",
"294",
"303",
"289",
"298",
"261",
"242",
"227",
"234",
"233",
"213",
"221",
"183",
"200",
"198",
"178",
"177",
"192",
"197",
"188",
"204",
"188",
"175",
"193",
"219",
"215",
"205",
"203",
"201",
"226",
"221",
"271",
"296",
"349",
"332",
"429",
"388",
"429",
"369",
"443",
"431",
"355",
"320",
"293",
"282",
"230",
"262",
"294",
"255",
"279",
"264",
"290",
"263",
"244",
"251",
"265",
"232",
"218",
"220",
"196",
"187",
"195",
"169",
"159",
"194",
"172",
"169",
"181",
"148",
"178",
"158",
"182",
"181",
"170",
"171",
"186",
"166",
"182",
"164",
"194",
"175",
"213",
"183",
"181",
"161",
"197",
"182",
"184",
"185",
"194",
"183",
"198",
"182",
"170",
"198",
"162",
"161",
"189",
"199",
"180",
"195",
"189",
"183",
"199",
"183",
"196",
"196",
"211",
"171",
"200",
"218",
"212",
"194",
"234",
"242",
"256",
"192",
"234",
"199",
"208",
"189",
"188",
"198",
"181",
"183",
"182",
"174",
"209",
"171",
"205",
"174",
"205",
"172",
"182",
"174",
"175",
"190",
"196",
"167",
"186",
"169",
"177",
"175",
"166",
"153",
"159",
"150",
"183",
"152",
"159",
"176",
"169",
"176",
"160",
"175",
"145",
"150",
"175",
"176",
"169",
"167",
"181",
"176",
"185",
"157",
"173",
"171",
"153",
"180",
"175",
"171",
"182",
"163",
"166",
"163",
"149",
"154",
"150",
"154",
"178",
"153",
"170",
"138",
"176",
"171",
"180",
"172",
"150",
"180",
"141",
"163",
"197",
"149",
"160",
"154",
"165",
"159",
"158",
"154",
"138",
"174",
"162",
"167",
"180",
"145",
"167",
"184",
"143",
"130",
"194",
"158",
"160",
"161",
"152",
"143",
"164",
"166",
"180",
"126",
"150",
"159",
"183",
"164",
"180",
"149",
"142",
"154",
"176",
"154",
"138",
"159",
"147",
"132",
"147",
"118",
"163",
"157",
"151",
"160",
"140",
"164",
"139",
"153",
"174",
"142",
"129",
"120",
"160",
"129",
"141",
"120",
"150",
"164",
"162",
"150",
"151",
"137",
"151",
"150",
"138",
"139",
"130",
"139",
"147",
"126",
"155",
"114",
"126",
"143",
"135",
"141",
"152",
"152",
"138",
"141",
"158",
"140",
"116",
"132",
"129",
"146",
"148",
"132",
"141",
"125",
"137",
"129",
"109",
"148",
"170",
"141",
"162",
"137",
"124",
"125",
"135",
"114",
"141",
"117",
"132",
"123",
"116",
"128",
"140",
"122",
"146",
"143",
"141",
"119",
"137",
"138",
"125",
"108",
"127",
"124",
"148",
"129",
"120",
"127",
"137",
"123",
"126",
"125",
"135",
"138",
"137",
"127",
"119",
"142",
"138",
"153",
"101",
"124",
"119",
"125",
"114",
"130",
"117",
"114",
"148",
"130",
"126",
"128",
"131",
"105",
"109",
"124",
"127",
"125",
"126",
"119",
"123",
"103",
"127",
"111",
"132",
"117",
"120",
"124",
"129",
"124",
"129",
"122",
"139",
"114",
"122",
"119",
"140",
"104",
"117",
"118",
"124",
"116",
"109",
"99",
"109",
"108",
"157",
"112",
"114",
"117",
"112",
"114",
"129",
"114",
"130",
"130",
"116",
"115",
"123",
"102",
"141",
"104",
"102",
"114",
"113",
"116",
"132",
"118",
"119",
"103",
"128",
"112",
"104",
"123",
"107",
"116",
"107",
"111",
"139",
"127",
"114",
"131",
"112",
"114",
"119",
"111",
"108",
"113",
"138",
"120",
"108",
"134",
"93",
"104",
"117",
"95",
"112",
"103",
"118",
"117",
"114",
"115",
"128",
"102",
"103",
"107",
"105",
"102",
"106",
"113",
"123",
"115",
"100",
"109",
"88",
"126",
"102",
"124",
"117",
"103",
"127",
"118",
"103",
"135",
"109",
"99",
"96",
"118",
"118",
"117",
"136",
"126",
"131",
"114",
"124",
"114",
"118",
"120",
"117",
"104",
"143",
"134",
"138",
"118",
"115",
"123",
"134",
"118",
"124",
"128",
"134",
"142",
"140",
"108",
"147",
"114",
"145",
"135",
"146",
"141",
"150",
"148",
"178",
"152",
"162",
"160",
"160",
"170",
"165",
"182",
"187",
"189",
"180",
"199",
"218",
"211",
"266",
"289",
"290",
"353",
"347",
"335",
"417",
"407",
"469",
"476",
"478",
"487",
"610",
"600",
"684",
"627",
"705",
"729",
"740",
"730",
"827",
"777",
"812",
"764",
"851",
"804",
"753",
"776",
"783",
"758",
"709",
"628",
"620",
"551",
"547",
"553",
"536",
"458",
"426",
"412",
"390",
"333",
"294",
"263",
"264",
"193",
"246",
"212",
"190",
"170",
"185",
"172",
"170",
"163",
"183",
"178",
"198",
"184",
"193",
"201",
"253",
"242",
"276",
"316",
"326",
"359",
"369",
"324",
"345",
"331",
"337",
"330",
"323",
"255",
"240",
"209",
"217",
"167",
"180",
"140",
"122",
"140",
"119",
"117",
"90",
"92",
"116",
"88",
"54204",
"Channel_info_start",
"Channel : Mg",
"Points : 0",
"Range : 0.000000 - 0.000000",
"Step : 0.010000",
"Channel_info_end",
"Channel_info_start",
"Channel : Al",
"Points : 0",
"Range : 0.000000 - 0.000000",
"Step : 0.010000",
"Channel_info_end",
"Channel_info_start",
"Channel : Si",
"Points : 0",
"Range : 0.000000 - 0.000000",
"Step : 0.010000",
"Channel_info_end",
"Channel_info_start",
"Channel : P ",
"Points : 0",
"Range : 0.000000 - 0.000000",
"Step : 0.010000",
"Channel_info_end",
"Channel_info_start",
"Channel : S ",
"Points : 0",
"Range : 0.000000 - 0.000000",
"Step : 0.010000",
"Channel_info_end",
"Channel_info_start",
"Channel : Cl",
"Points : 0",
"Range : 0.000000 - 0.000000",
"Step : 0.010000",
"Channel_info_end",
"Channel_info_start",
"Channel : K ",
"Points : 0",
"Range : 0.000000 - 0.000000",
"Step : 0.010000",
"Channel_info_end",
"Channel_info_start",
"Channel : Ca",
"Points : 0",
"Range : 0.000000 - 0.000000",
"Step : 0.010000",
"Channel_info_end",
"Channel_info_start",
"Channel : Ti",
"Points : 0",
"Range : 0.000000 - 0.000000",
"Step : 0.010000",
"Channel_info_end",
"Channel_info_start",
"Channel : V ",
"Points : 0",
"Range : 0.000000 - 0.000000",
"Step : 0.010000",
"Channel_info_end",
"Channel_info_start",
"Channel : Cr",
"Points : 0",
"Range : 0.000000 - 0.000000",
"Step : 0.010000",
"Channel_info_end",
"Channel_info_start",
"Channel : Mn",
"Points : 0",
"Range : 0.000000 - 0.000000",
"Step : 0.010000",
"Channel_info_end",
"Channel_info_start",
"Channel : Fe",
"Points : 0",
"Range : 0.000000 - 0.000000",
"Step : 0.010000",
"Channel_info_end",
"Channel_info_start",
"Channel : Cu",
"Points : 0",
"Range : 0.000000 - 0.000000",
"Step : 0.010000",
"Channel_info_end",
"Channel_info_start",
"Channel : Zn",
"Points : 0",
"Range : 0.000000 - 0.000000",
"Step : 0.010000",
"Channel_info_end",
"Channel_info_start",
"Channel : Sr",
"Points : 0",
"Range : 0.000000 - 0.000000",
"Step : 0.010000",
"Channel_info_end",
"Channel_info_start",
"Channel : Pb",
"Points : 0",
"Range : 0.000000 - 0.000000",
"Step : 0.010000",
"Channel_info_end",
"",
"Qualitative Result",
"--------------------------------------------------------------------------------",
"Element :  Ta, P , Ca, Fe, Zn, Ru",
"",
"Peak List",
"--------------------------------------------------------------------------------",
"Channel               Line        keV     Net Int.(cps/uA)",
"--------------------------------------------------------------------------------",
"Na                    TaMa         1.74     0.017",
"                      P Ka         1.97     0.047",
"                      CaKa         3.68     4.025",
"                      CaKb         4.02     0.496",
"                      FeKa         6.36     0.023",
"                      TaLa         8.15     0.081",
"                      ZnKa         8.62     0.020",
"                      TaLb1        9.36     0.047",
"                      ZnKb         9.57     0.003",
"                      TaLb2        9.59     0.019",
"                      RuKa        19.15     0.123",
"                      ----        19.41     0.073",
"                      ----        20.02     0.047",
"--------------------------------------------------------------------------------",
"",
"Quantitative Result",
"--------------------------------------------------------------------------------",
"Analyte               Result             Std.Dev. Proc.-Calc. Line Intensity(cps/uA)",
"--------------------------------------------------------------------------------",
"====[No. 1 Layer]====< Layer1               >===============================",
"Layer1                   0.000 ug/cm2    -------- Flux       -------- --------",