File: inputs/edxCalibration/edx_raw/2010-06/CdSe 15766.20100611031545.csv
"Sample    : CdSe 15766",
"Operator  : Luís",
"Comment  : cubatao-g-policarbonato",
"Group     : kerr2007ag180cal_lt",
"Date       : 2010-06-11 03:09:43",
"",
"Mesurement Condition",
"------------------------------------------------------------------------------------",
"Instrument : 700HS2   Atmosphere : Vac.   Collimator : 10(mm)   Spin : No",
"------------------------------------------------------------------------------------",
"Analyte               TG kV   uA      FI Acq.(keV)  Anal.(keV)  Time(sec)     DT(%)",
"------------------------------------------------------------------------------------",
"Na                    Rh 50  237-Auto Al  0 - 20    0.8 - 1.2   Live -  179   14",
"",
"<Profile>",
"Channel_info_start",
"Channel : Na",
"Points : 2048",
"Range : 0.000000 - 20.48",
"Step : 0.010000",
"Channel_info_end",
"0",
"0",
"0",
"0",
"0",
"0",
"0",
"0",
"0",
"0",
"0",
"0",
"0",
"0",
"1",
"8",
"35",
"38",
"32",
"38",
"32",
"27",
"27",
"25",
"26",
"30",
"28",
"24",
"28",
"30",
"22",
"27",
"22",
"32",
"27",
"27",
"18",
"26",
"23",
"23",
"18",
"20",
"35",
"13",
"25",
"22",
"23",
"32",
"33",
"17",
"20",
"33",
"33",
"39",
"27",
"36",
"33",
"31",
"43",
"32",
"68",
"74",
"74",
"58",
"74",
"136",
"247",
"428",
"637",
"716",
"808",
"729",
"571",
"386",
"296",
"233",
"131",
"96",
"95",
"72",
"72",
"72",
"50",
"43",
"37",
"40",
"42",
"36",
"39",
"47",
"40",
"33",
"44",
"32",
"30",
"32",
"54",
"58",
"68",
"61",
"67",
"74",
"71",
"47",
"39",
"42",
"33",
"30",
"29",
"24",
"40",
"49",
"27",
"50",
"55",
"61",
"51",
"51",
"36",
"37",
"23",
"17",
"49",
"27",
"43",
"45",
"39",
"55",
"37",
"50",
"44",
"55",
"80",
"79",
"74",
"134",
"150",
"161",
"219",
"209",
"179",
"202",
"137",
"138",
"138",
"113",
"141",
"141",
"143",
"196",
"265",
"445",
"849",
"1468",
"2335",
"3183",
"3908",
"3855",
"3442",
"2723",
"1869",
"1334",
"1116",
"1271",
"1595",
"1760",
"2048",
"1981",
"1738",
"1411",
"1209",
"835",
"685",
"544",
"484",
"477",
"531",
"521",
"480",
"429",
"451",
"454",
"514",
"672",
"697",
"689",
"715",
"517",
"385",
"263",
"149",
"129",
"96",
"96",
"120",
"127",
"174",
"163",
"160",
"172",
"139",
"129",
"137",
"96",
"71",
"60",
"31",
"42",
"35",
"23",
"28",
"25",
"31",
"36",
"29",
"29",
"43",
"37",
"36",
"33",
"51",
"39",
"64",
"39",
"30",
"42",
"44",
"44",
"49",
"49",
"38",
"53",
"49",
"33",
"50",
"39",
"47",
"39",
"39",
"42",
"43",
"35",
"32",
"39",
"47",
"22",
"40",
"35",
"31",
"28",
"41",
"38",
"44",
"40",
"50",
"45",
"20",
"35",
"36",
"37",
"44",
"36",
"51",
"54",
"38",
"49",
"57",
"49",
"52",
"46",
"52",
"45",
"55",
"56",
"51",
"59",
"42",
"37",
"52",
"45",
"50",
"53",
"45",
"43",
"63",
"57",
"67",
"79",
"67",
"65",
"71",
"68",
"74",
"63",
"63",
"66",
"78",
"77",
"69",
"54",
"74",
"88",
"80",
"77",
"83",
"95",
"83",
"70",
"79",
"90",
"101",
"72",
"79",
"79",
"84",
"88",
"88",
"95",
"129",
"97",
"91",
"92",
"122",
"86",
"98",
"99",
"92",
"84",
"81",
"99",
"93",
"95",
"104",
"94",
"100",
"85",
"107",
"107",
"88",
"111",
"88",
"107",
"95",
"102",
"102",
"110",
"96",
"91",
"79",
"92",
"107",
"90",
"94",
"92",
"95",
"105",
"95",
"96",
"91",
"84",
"101",
"71",
"95",
"94",
"83",
"81",
"106",
"87",
"105",
"94",
"105",
"101",
"100",
"120",
"98",
"82",
"98",
"109",
"111",
"110",
"118",
"117",
"91",
"96",
"118",
"101",
"104",
"105",
"108",
"101",
"93",
"96",
"107",
"123",
"118",
"115",
"112",
"139",
"117",
"143",
"137",
"138",
"140",
"139",
"125",
"136",
"115",
"107",
"114",
"83",
"115",
"95",
"99",
"96",
"94",
"85",
"101",
"87",
"104",
"78",
"102",
"82",
"82",
"97",
"107",
"119",
"105",
"136",
"132",
"152",
"163",
"148",
"156",
"151",
"147",
"137",
"137",
"110",
"123",
"110",
"97",
"95",
"129",
"107",
"117",
"101",
"104",
"82",
"101",
"104",
"100",
"111",
"94",
"111",
"99",
"79",
"115",
"117",
"108",
"104",
"95",
"98",
"117",
"91",
"110",
"101",
"110",
"119",
"112",
"127",
"108",
"119",
"98",
"131",
"128",
"119",
"114",
"95",
"120",
"118",
"119",
"121",
"97",
"126",
"115",
"101",
"114",
"117",
"102",
"119",
"105",
"95",
"96",
"82",
"108",
"104",
"91",
"92",
"99",
"106",
"104",
"94",
"106",
"100",
"105",
"105",
"97",
"97",
"93",
"98",
"97",
"80",
"91",
"98",
"105",
"82",
"88",
"94",
"113",
"82",
"81",
"106",
"101",
"111",
"99",
"96",
"87",
"69",
"111",
"113",
"106",
"108",
"99",
"93",
"115",
"135",
"118",
"120",
"135",
"125",
"123",
"121",
"128",
"128",
"162",
"178",
"265",
"325",
"515",
"781",
"1252",
"1999",
"2951",
"4284",
"6002",
"7508",
"9574",
"10873",
"12240",
"12749",
"13552",
"12321",
"11478",
"10095",
"8207",
"6600",
"5024",
"3555",
"2520",
"1618",
"1054",
"607",
"410",
"298",
"209",
"162",
"146",
"109",
"113",
"100",
"105",
"99",
"114",
"105",
"90",
"77",
"84",
"119",
"115",
"102",
"114",
"98",
"111",
"123",
"115",
"94",
"109",
"120",
"90",
"111",
"122",
"94",
"117",
"92",
"121",
"117",
"115",
"112",
"120",
"131",
"121",
"147",
"195",
"250",
"309",
"372",
"575",
"701",
"981",
"1194",
"1437",
"1537",
"1779",
"1822",
"2063",
"1887",
"1811",
"1599",
"1371",
"1178",
"1004",
"785",
"639",
"467",
"345",
"281",
"224",
"165",
"147",
"135",
"108",
"107",
"101",
"95",
"84",
"58",
"68",
"76",
"73",
"71",
"77",
"72",
"81",
"68",
"67",
"74",
"66",
"74",
"71",
"64",
"95",
"70",
"82",
"67",
"80",
"68",
"73",
"74",
"84",
"74",
"49",
"93",
"67",
"79",
"66",
"73",
"79",
"70",
"61",
"69",
"66",
"72",
"60",
"70",
"80",
"83",
"67",
"65",
"76",
"76",
"73",
"60",
"64",
"68",
"82",
"76",
"70",
"58",
"73",
"55",
"68",
"57",
"76",
"70",
"79",
"67",
"81",
"76",
"80",
"61",
"73",
"63",
"56",
"70",
"58",
"66",
"66",
"72",
"66",
"77",
"81",
"76",
"81",
"60",
"77",
"58",
"88",
"65",
"74",
"59",
"63",
"66",
"78",
"61",
"67",
"57",
"68",
"53",
"68",
"73",
"70",
"59",
"60",
"68",
"65",
"72",
"61",
"63",
"70",
"49",
"56",
"77",
"55",
"70",
"58",
"71",
"56",
"58",
"65",
"60",
"68",
"52",
"65",
"51",
"61",
"45",
"61",
"70",
"69",
"68",
"57",
"59",
"71",
"61",
"56",
"56",
"54",
"61",
"73",
"55",
"60",
"61",
"47",
"49",
"64",
"64",
"45",
"49",
"56",
"51",
"74",
"53",
"65",
"73",
"73",
"59",
"76",
"58",
"55",
"71",
"66",
"67",
"60",
"57",
"44",
"74",
"43",
"50",
"59",
"41",
"61",
"52",
"65",
"58",
"45",
"47",
"59",
"60",
"50",
"60",
"49",
"69",
"47",
"56",
"53",
"53",
"41",
"60",
"51",
"55",
"52",
"52",
"53",
"50",
"43",
"70",
"63",
"54",
"56",
"51",
"60",
"51",
"64",
"45",
"63",
"49",
"64",
"57",
"59",
"55",
"70",
"41",
"55",
"45",
"46",
"57",
"45",
"47",
"61",
"53",
"64",
"60",
"49",
"60",
"50",
"54",
"52",
"56",
"49",
"54",
"67",
"52",
"53",
"56",
"49",
"44",
"54",
"53",
"69",
"55",
"56",
"59",
"58",
"47",
"57",
"64",
"55",
"64",
"46",
"42",
"59",
"54",
"56",
"45",
"55",
"38",
"67",
"50",
"52",
"60",
"58",
"46",
"52",
"66",
"70",
"78",
"52",
"60",
"51",
"67",
"81",
"59",
"67",
"61",
"55",
"58",
"68",
"50",
"58",
"80",
"66",
"54",
"70",
"63",
"77",
"63",
"74",
"79",
"115",
"97",
"65",
"85",
"100",
"85",
"122",
"120",
"105",
"125",
"140",
"132",
"165",
"143",
"181",
"166",
"202",
"207",
"214",
"244",
"246",
"243",
"287",
"300",
"332",
"301",
"347",
"323",
"332",
"337",
"356",
"334",
"382",
"326",
"334",
"309",
"327",
"285",
"307",
"289",
"269",
"260",
"247",
"197",
"210",
"195",
"204",
"139",
"154",
"131",
"153",
"115",
"121",
"108",
"96",
"102",
"86",
"80",
"79",
"74",
"87",
"83",
"98",
"98",
"88",
"109",
"104",
"107",
"152",
"139",
"158",
"162",
"179",
"196",
"187",
"184",
"197",
"209",
"193",
"169",
"207",
"138",
"145",
"135",
"119",
"85",
"81",
"60",
"65",
"66",
"55",
"54",
"56",
"54",
"55",
"49",
"82664",
"Channel_info_start",
"Channel : Mg",
"Points : 0",
"Range : 0.000000 - 0.000000",
"Step : 0.010000",
"Channel_info_end",
"Channel_info_start",
"Channel : Al",
"Points : 0",
"Range : 0.000000 - 0.000000",
"Step : 0.010000",
"Channel_info_end",
"Channel_info_start",
"Channel : Si",
"Points : 0",
"Range : 0.000000 - 0.000000",
"Step : 0.010000",
"Channel_info_end",
"Channel_info_start",
"Channel : P ",
"Points : 0",
"Range : 0.000000 - 0.000000",
"Step : 0.010000",
"Channel_info_end",
"Channel_info_start",
"Channel : S ",
"Points : 0",
"Range : 0.000000 - 0.000000",
"Step : 0.010000",
"Channel_info_end",
"Channel_info_start",
"Channel : Cl",
"Points : 0",
"Range : 0.000000 - 0.000000",
"Step : 0.010000",
"Channel_info_end",
"Channel_info_start",
"Channel : K ",
"Points : 0",
"Range : 0.000000 - 0.000000",
"Step : 0.010000",
"Channel_info_end",
"Channel_info_start",
"Channel : Ca",
"Points : 0",
"Range : 0.000000 - 0.000000",
"Step : 0.010000",
"Channel_info_end",
"Channel_info_start",
"Channel : Ti",
"Points : 0",
"Range : 0.000000 - 0.000000",
"Step : 0.010000",
"Channel_info_end",
"Channel_info_start",
"Channel : V ",
"Points : 0",
"Range : 0.000000 - 0.000000",
"Step : 0.010000",
"Channel_info_end",
"Channel_info_start",
"Channel : Cr",
"Points : 0",
"Range : 0.000000 - 0.000000",
"Step : 0.010000",
"Channel_info_end",
"Channel_info_start",
"Channel : Mn",
"Points : 0",
"Range : 0.000000 - 0.000000",
"Step : 0.010000",
"Channel_info_end",
"Channel_info_start",
"Channel : Fe",
"Points : 0",
"Range : 0.000000 - 0.000000",
"Step : 0.010000",
"Channel_info_end",
"Channel_info_start",
"Channel : Cu",
"Points : 0",
"Range : 0.000000 - 0.000000",
"Step : 0.010000",
"Channel_info_end",
"Channel_info_start",
"Channel : Zn",
"Points : 0",
"Range : 0.000000 - 0.000000",
"Step : 0.010000",
"Channel_info_end",
"Channel_info_start",
"Channel : Sr",
"Points : 0",
"Range : 0.000000 - 0.000000",
"Step : 0.010000",
"Channel_info_end",
"Channel_info_start",
"Channel : Pb",
"Points : 0",
"Range : 0.000000 - 0.000000",
"Step : 0.010000",
"Channel_info_end",
"",
"Qualitative Result",
"--------------------------------------------------------------------------------",
"Element :  Mg, Se, Cd, Ca, Ru",
"",
"Peak List",
"--------------------------------------------------------------------------------",
"Channel               Line        keV     Net Int.(cps/uA)",
"--------------------------------------------------------------------------------",
"Na                    MgKa         1.20     0.006",
"                      SeLa         1.40     0.210",
"                      CdLL         2.76     0.044",
"                      CdLa         3.13     1.199",
"                      CdLb1        3.32     0.611",
"                      CdLb2        3.52     0.123",
"                      CdLg1        3.68     0.060",
"                      CaKa         3.68     0.128",
"                      CdLg2        3.96     0.029",
"                      SeKa        11.20     5.973",
"                      SeKb        12.48     0.883",
"                      RuKa        19.20     0.141",
"                      ----        19.48     0.049",
"                      ----        20.02     0.066",
"--------------------------------------------------------------------------------",
"",
"Quantitative Result",
"--------------------------------------------------------------------------------",
"Analyte               Result             Std.Dev. Proc.-Calc. Line Intensity(cps/uA)",
"--------------------------------------------------------------------------------",
"====[No. 1 Layer]====< Layer1               >===============================",
"Layer1                   2.065 ug/cm2    -------- Flux       -------- --------",
"Mg                       2.065 ug/cm2    -------- ********** -------- --------",