File: inputs/edxCalibration/edx_raw/2010-06/Cr 15756.20100610233955.csv
"Sample    : Cr 15756",
"Operator  : thiago",
"Comment  : cubatao-g-policarbonato",
"Group     : kerr2007ag180cal_lt",
"Date       : 2010-06-10 23:33:54",
"",
"Mesurement Condition",
"------------------------------------------------------------------------------------",
"Instrument : 700HS2   Atmosphere : Vac.   Collimator : 10(mm)   Spin : No",
"------------------------------------------------------------------------------------",
"Analyte               TG kV   uA      FI Acq.(keV)  Anal.(keV)  Time(sec)     DT(%)",
"------------------------------------------------------------------------------------",
"Na                    Rh 50  210-Auto Al  0 - 20    0.8 - 1.2   Live -  179   14",
"",
"<Profile>",
"Channel_info_start",
"Channel : Na",
"Points : 2048",
"Range : 0.000000 - 20.48",
"Step : 0.010000",
"Channel_info_end",
"0",
"0",
"0",
"0",
"0",
"0",
"0",
"0",
"0",
"0",
"0",
"0",
"0",
"0",
"0",
"6",
"8",
"11",
"10",
"9",
"17",
"14",
"11",
"9",
"11",
"11",
"8",
"15",
"11",
"16",
"12",
"9",
"13",
"17",
"11",
"14",
"10",
"12",
"5",
"6",
"11",
"15",
"12",
"11",
"15",
"8",
"12",
"6",
"19",
"11",
"13",
"12",
"13",
"11",
"14",
"14",
"5",
"16",
"11",
"11",
"12",
"13",
"13",
"14",
"12",
"13",
"9",
"13",
"9",
"12",
"19",
"13",
"10",
"16",
"19",
"29",
"16",
"14",
"15",
"16",
"12",
"11",
"17",
"14",
"18",
"25",
"28",
"17",
"17",
"19",
"14",
"18",
"14",
"14",
"15",
"22",
"21",
"23",
"44",
"41",
"58",
"68",
"48",
"49",
"19",
"22",
"15",
"19",
"16",
"15",
"16",
"14",
"26",
"14",
"24",
"15",
"22",
"21",
"19",
"17",
"18",
"17",
"16",
"14",
"13",
"4",
"13",
"17",
"13",
"6",
"6",
"15",
"17",
"21",
"21",
"24",
"27",
"18",
"13",
"17",
"16",
"17",
"28",
"27",
"18",
"14",
"13",
"22",
"26",
"13",
"18",
"16",
"18",
"15",
"19",
"12",
"14",
"14",
"23",
"18",
"23",
"18",
"23",
"24",
"19",
"25",
"30",
"17",
"28",
"15",
"18",
"24",
"19",
"25",
"24",
"30",
"44",
"81",
"114",
"168",
"247",
"396",
"500",
"614",
"652",
"620",
"500",
"409",
"294",
"167",
"121",
"73",
"58",
"70",
"42",
"67",
"54",
"65",
"70",
"83",
"83",
"86",
"95",
"62",
"66",
"68",
"42",
"49",
"52",
"58",
"66",
"39",
"75",
"47",
"51",
"57",
"40",
"40",
"55",
"56",
"69",
"65",
"53",
"60",
"79",
"79",
"68",
"73",
"71",
"91",
"109",
"93",
"83",
"71",
"87",
"94",
"89",
"83",
"79",
"92",
"73",
"69",
"68",
"81",
"77",
"76",
"90",
"84",
"104",
"97",
"118",
"103",
"121",
"113",
"113",
"110",
"169",
"151",
"191",
"226",
"297",
"549",
"944",
"1970",
"3965",
"7094",
"12057",
"17768",
"24239",
"29126",
"33171",
"32142",
"28840",
"22785",
"17073",
"10696",
"6673",
"3335",
"1701",
"773",
"389",
"198",
"140",
"140",
"123",
"122",
"184",
"180",
"259",
"360",
"607",
"935",
"1443",
"2003",
"2768",
"3360",
"4063",
"4126",
"4041",
"3282",
"2755",
"1972",
"1293",
"817",
"482",
"247",
"132",
"96",
"56",
"56",
"70",
"63",
"50",
"52",
"60",
"65",
"50",
"66",
"58",
"57",
"70",
"75",
"54",
"84",
"75",
"64",
"79",
"75",
"76",
"77",
"82",
"88",
"92",
"57",
"79",
"82",
"86",
"74",
"60",
"71",
"75",
"83",
"73",
"64",
"81",
"68",
"77",
"68",
"88",
"66",
"74",
"54",
"73",
"78",
"63",
"63",
"52",
"52",
"55",
"63",
"74",
"62",
"56",
"63",
"64",
"69",
"60",
"54",
"67",
"67",
"49",
"61",
"70",
"66",
"63",
"68",
"61",
"70",
"62",
"63",
"86",
"62",
"71",
"76",
"81",
"66",
"87",
"97",
"75",
"70",
"71",
"77",
"82",
"71",
"80",
"69",
"76",
"76",
"77",
"86",
"88",
"88",
"99",
"95",
"77",
"82",
"69",
"74",
"66",
"65",
"73",
"67",
"83",
"68",
"76",
"77",
"96",
"82",
"73",
"65",
"68",
"93",
"91",
"81",
"86",
"110",
"84",
"97",
"120",
"115",
"127",
"96",
"108",
"91",
"109",
"107",
"84",
"81",
"84",
"78",
"75",
"73",
"65",
"55",
"64",
"70",
"64",
"79",
"75",
"73",
"69",
"74",
"61",
"73",
"80",
"56",
"78",
"63",
"71",
"77",
"79",
"56",
"83",
"64",
"73",
"68",
"68",
"64",
"80",
"73",
"73",
"75",
"60",
"83",
"65",
"71",
"65",
"84",
"75",
"60",
"86",
"74",
"69",
"65",
"81",
"75",
"82",
"63",
"66",
"80",
"74",
"61",
"69",
"63",
"80",
"78",
"82",
"76",
"73",
"82",
"81",
"83",
"76",
"81",
"74",
"88",
"78",
"74",
"80",
"82",
"80",
"73",
"84",
"82",
"91",
"66",
"62",
"61",
"68",
"64",
"84",
"65",
"68",
"64",
"71",
"74",
"91",
"62",
"51",
"65",
"86",
"41",
"49",
"69",
"76",
"71",
"109",
"87",
"104",
"95",
"92",
"73",
"108",
"109",
"114",
"103",
"64",
"79",
"78",
"73",
"60",
"64",
"64",
"52",
"84",
"62",
"79",
"76",
"70",
"73",
"57",
"71",
"76",
"78",
"96",
"87",
"96",
"78",
"84",
"86",
"86",
"67",
"58",
"91",
"66",
"71",
"71",
"70",
"74",
"69",
"67",
"65",
"76",
"88",
"57",
"69",
"58",
"58",
"57",
"61",
"52",
"75",
"67",
"74",
"65",
"57",
"65",
"61",
"53",
"62",
"60",
"63",
"60",
"52",
"54",
"60",
"67",
"57",
"68",
"60",
"57",
"60",
"55",
"70",
"73",
"62",
"62",
"58",
"71",
"51",
"62",
"58",
"63",
"62",
"54",
"43",
"60",
"80",
"66",
"53",
"69",
"60",
"48",
"60",
"64",
"45",
"65",
"64",
"57",
"60",
"56",
"53",
"58",
"52",
"57",
"64",
"58",
"73",
"63",
"51",
"50",
"50",
"58",
"63",
"61",
"52",
"65",
"50",
"69",
"58",
"52",
"58",
"49",
"44",
"66",
"75",
"53",
"54",
"51",
"51",
"62",
"63",
"61",
"66",
"58",
"47",
"57",
"58",
"38",
"67",
"63",
"53",
"53",
"78",
"66",
"68",
"54",
"66",
"66",
"49",
"62",
"49",
"58",
"51",
"61",
"61",
"64",
"56",
"53",
"48",
"58",
"60",
"47",
"57",
"54",
"54",
"53",
"48",
"49",
"45",
"51",
"66",
"47",
"52",
"55",
"42",
"58",
"49",
"49",
"44",
"47",
"53",
"55",
"61",
"37",
"54",
"60",
"49",
"51",
"43",
"50",
"49",
"63",
"48",
"42",
"54",
"41",
"48",
"51",
"56",
"56",
"43",
"44",
"47",
"56",
"57",
"65",
"61",
"55",
"54",
"51",
"44",
"56",
"41",
"51",
"42",
"57",
"56",
"45",
"51",
"44",
"51",
"40",
"54",
"62",
"48",
"48",
"54",
"48",
"51",
"38",
"44",
"60",
"56",
"48",
"36",
"56",
"48",
"47",
"47",
"38",
"36",
"53",
"32",
"45",
"56",
"49",
"50",
"57",
"49",
"37",
"44",
"52",
"57",
"55",
"47",
"56",
"50",
"50",
"52",
"43",
"31",
"53",
"55",
"63",
"37",
"39",
"48",
"53",
"49",
"40",
"51",
"55",
"34",
"47",
"51",
"55",
"48",
"39",
"49",
"52",
"44",
"43",
"40",
"55",
"44",
"48",
"44",
"45",
"54",
"50",
"41",
"52",
"36",
"50",
"37",
"40",
"37",
"41",
"49",
"44",
"48",
"40",
"39",
"44",
"50",
"53",
"41",
"44",
"39",
"43",
"42",
"38",
"37",
"40",
"37",
"49",
"30",
"42",
"44",
"56",
"38",
"34",
"42",
"42",
"39",
"30",
"45",
"44",
"45",
"44",
"36",
"43",
"39",
"51",
"43",
"39",
"47",
"49",
"26",
"44",
"41",
"55",
"38",
"35",
"37",
"45",
"38",
"43",
"47",
"48",
"47",
"45",
"37",
"47",
"49",
"43",
"41",
"41",
"37",
"36",
"42",
"32",
"49",
"48",
"42",
"52",
"45",
"62",
"55",
"56",
"45",
"51",
"54",
"53",
"57",
"57",
"63",
"54",
"50",
"49",
"47",
"60",
"61",
"57",
"63",
"70",
"62",
"83",
"66",
"71",
"65",
"79",
"75",
"81",
"82",
"105",
"101",
"107",
"114",
"140",
"132",
"148",
"166",
"157",
"174",
"186",
"179",
"219",
"219",
"224",
"261",
"253",
"244",
"291",
"255",
"294",
"309",
"279",
"336",
"340",
"329",
"286",
"305",
"271",
"275",
"264",
"235",
"233",
"211",
"247",
"199",
"177",
"142",
"157",
"142",
"123",
"139",
"110",
"105",
"131",
"101",
"106",
"50",
"82",
"83",
"69",
"66",
"69",
"57",
"82",
"73",
"83",
"75",
"81",
"91",
"112",
"105",
"130",
"122",
"125",
"169",
"151",
"146",
"145",
"133",
"145",
"134",
"116",
"123",
"105",
"64",
"83",
"64",
"63",
"65",
"56",
"53",
"41",
"34",
"48",
"52",
"39",
"37",
"20785",
"Channel_info_start",
"Channel : Mg",
"Points : 0",
"Range : 0.000000 - 0.000000",
"Step : 0.010000",
"Channel_info_end",
"Channel_info_start",
"Channel : Al",
"Points : 0",
"Range : 0.000000 - 0.000000",
"Step : 0.010000",
"Channel_info_end",
"Channel_info_start",
"Channel : Si",
"Points : 0",
"Range : 0.000000 - 0.000000",
"Step : 0.010000",
"Channel_info_end",
"Channel_info_start",
"Channel : P ",
"Points : 0",
"Range : 0.000000 - 0.000000",
"Step : 0.010000",
"Channel_info_end",
"Channel_info_start",
"Channel : S ",
"Points : 0",
"Range : 0.000000 - 0.000000",
"Step : 0.010000",
"Channel_info_end",
"Channel_info_start",
"Channel : Cl",
"Points : 0",
"Range : 0.000000 - 0.000000",
"Step : 0.010000",
"Channel_info_end",
"Channel_info_start",
"Channel : K ",
"Points : 0",
"Range : 0.000000 - 0.000000",
"Step : 0.010000",
"Channel_info_end",
"Channel_info_start",
"Channel : Ca",
"Points : 0",
"Range : 0.000000 - 0.000000",
"Step : 0.010000",
"Channel_info_end",
"Channel_info_start",
"Channel : Ti",
"Points : 0",
"Range : 0.000000 - 0.000000",
"Step : 0.010000",
"Channel_info_end",
"Channel_info_start",
"Channel : V ",
"Points : 0",
"Range : 0.000000 - 0.000000",
"Step : 0.010000",
"Channel_info_end",
"Channel_info_start",
"Channel : Cr",
"Points : 0",
"Range : 0.000000 - 0.000000",
"Step : 0.010000",
"Channel_info_end",
"Channel_info_start",
"Channel : Mn",
"Points : 0",
"Range : 0.000000 - 0.000000",
"Step : 0.010000",
"Channel_info_end",
"Channel_info_start",
"Channel : Fe",
"Points : 0",
"Range : 0.000000 - 0.000000",
"Step : 0.010000",
"Channel_info_end",
"Channel_info_start",
"Channel : Cu",
"Points : 0",
"Range : 0.000000 - 0.000000",
"Step : 0.010000",
"Channel_info_end",
"Channel_info_start",
"Channel : Zn",
"Points : 0",
"Range : 0.000000 - 0.000000",
"Step : 0.010000",
"Channel_info_end",
"Channel_info_start",
"Channel : Sr",
"Points : 0",
"Range : 0.000000 - 0.000000",
"Step : 0.010000",
"Channel_info_end",
"Channel_info_start",
"Channel : Pb",
"Points : 0",
"Range : 0.000000 - 0.000000",
"Step : 0.010000",
"Channel_info_end",
"",
"Qualitative Result",
"--------------------------------------------------------------------------------",
"Element :  P , Ca, Cr, Ru",
"",
"Peak List",
"--------------------------------------------------------------------------------",
"Channel               Line        keV     Net Int.(cps/uA)",
"--------------------------------------------------------------------------------",
"Na                    P Ka         2.01     0.016",
"                      CaKa         3.68     0.244",
"                      CaKb         4.03     0.017",
"                      CrKa         5.40    13.510",
"                      CrKb         5.94     1.717",
"                      RuKa        19.21     0.152",
"                      ----        20.02     0.065",
"--------------------------------------------------------------------------------",
"",
"Quantitative Result",
"--------------------------------------------------------------------------------",
"Analyte               Result             Std.Dev. Proc.-Calc. Line Intensity(cps/uA)",
"--------------------------------------------------------------------------------",
"====[No. 1 Layer]====< Layer1               >===============================",
"Layer1                   0.000 ug/cm2    -------- Flux       -------- --------",