File: inputs/edxCalibration/edx_raw/2010-06/CsBr 31512.20100611013826.csv
"Sample    : CsBr 31512",
"Operator  : Luís",
"Comment  : cubatao-g-policarbonato",
"Group     : kerr2007ag180cal_lt",
"Date       : 2010-06-11 01:34:24",
"",
"Mesurement Condition",
"------------------------------------------------------------------------------------",
"Instrument : 700HS2   Atmosphere : Vac.   Collimator : 10(mm)   Spin : No",
"------------------------------------------------------------------------------------",
"Analyte               TG kV   uA      FI Acq.(keV)  Anal.(keV)  Time(sec)     DT(%)",
"------------------------------------------------------------------------------------",
"Na                    Rh 50  237-Auto Al  0 - 20    0.8 - 1.2   Live -  180   14",
"",
"<Profile>",
"Channel_info_start",
"Channel : Na",
"Points : 2048",
"Range : 0.000000 - 20.48",
"Step : 0.010000",
"Channel_info_end",
"0",
"0",
"0",
"0",
"0",
"0",
"0",
"0",
"0",
"0",
"0",
"0",
"0",
"0",
"0",
"13",
"25",
"23",
"26",
"26",
"20",
"33",
"25",
"18",
"26",
"13",
"26",
"24",
"23",
"16",
"25",
"27",
"23",
"18",
"22",
"30",
"20",
"16",
"18",
"18",
"22",
"18",
"29",
"23",
"20",
"15",
"17",
"22",
"27",
"28",
"28",
"24",
"35",
"17",
"29",
"29",
"23",
"23",
"28",
"18",
"31",
"30",
"26",
"34",
"53",
"53",
"49",
"34",
"50",
"68",
"102",
"213",
"352",
"502",
"645",
"653",
"672",
"513",
"385",
"222",
"156",
"129",
"75",
"57",
"43",
"44",
"34",
"40",
"35",
"28",
"25",
"28",
"33",
"31",
"31",
"48",
"47",
"56",
"65",
"74",
"98",
"83",
"72",
"72",
"51",
"38",
"35",
"30",
"23",
"20",
"26",
"34",
"27",
"27",
"20",
"29",
"25",
"14",
"28",
"33",
"17",
"30",
"31",
"40",
"57",
"64",
"90",
"67",
"83",
"69",
"55",
"55",
"34",
"35",
"21",
"36",
"35",
"35",
"33",
"40",
"38",
"51",
"57",
"63",
"66",
"57",
"51",
"51",
"42",
"31",
"27",
"35",
"36",
"23",
"26",
"36",
"39",
"27",
"30",
"29",
"37",
"31",
"36",
"26",
"36",
"27",
"30",
"23",
"21",
"41",
"41",
"29",
"37",
"43",
"42",
"50",
"46",
"74",
"126",
"171",
"272",
"418",
"642",
"779",
"927",
"944",
"912",
"791",
"669",
"588",
"450",
"358",
"314",
"241",
"180",
"118",
"142",
"143",
"145",
"176",
"174",
"165",
"200",
"177",
"187",
"243",
"332",
"459",
"828",
"1388",
"2292",
"3584",
"5068",
"6111",
"6762",
"6342",
"5530",
"4244",
"2908",
"1640",
"949",
"517",
"277",
"272",
"324",
"555",
"983",
"1609",
"2352",
"3174",
"4016",
"4202",
"4243",
"3924",
"3365",
"2558",
"2071",
"1478",
"1148",
"829",
"584",
"510",
"520",
"601",
"795",
"963",
"1095",
"1088",
"1037",
"803",
"661",
"488",
"346",
"221",
"171",
"128",
"119",
"142",
"176",
"206",
"303",
"367",
"484",
"560",
"513",
"545",
"499",
"375",
"271",
"199",
"173",
"160",
"151",
"181",
"245",
"322",
"344",
"345",
"325",
"293",
"255",
"206",
"153",
"133",
"109",
"99",
"103",
"83",
"83",
"61",
"56",
"46",
"57",
"69",
"55",
"59",
"57",
"67",
"65",
"66",
"54",
"86",
"82",
"59",
"94",
"68",
"61",
"73",
"85",
"82",
"82",
"77",
"77",
"73",
"96",
"99",
"101",
"82",
"87",
"102",
"89",
"93",
"103",
"85",
"86",
"61",
"74",
"93",
"81",
"82",
"88",
"79",
"88",
"100",
"109",
"81",
"103",
"107",
"92",
"99",
"108",
"92",
"104",
"114",
"126",
"102",
"106",
"125",
"116",
"103",
"100",
"98",
"95",
"86",
"91",
"95",
"82",
"82",
"83",
"73",
"98",
"72",
"79",
"99",
"82",
"77",
"90",
"94",
"85",
"107",
"94",
"83",
"90",
"95",
"101",
"120",
"102",
"100",
"89",
"93",
"106",
"101",
"93",
"92",
"115",
"85",
"101",
"94",
"101",
"109",
"120",
"105",
"98",
"104",
"92",
"99",
"100",
"104",
"119",
"114",
"128",
"119",
"120",
"88",
"104",
"94",
"108",
"92",
"113",
"90",
"92",
"112",
"98",
"105",
"117",
"89",
"112",
"96",
"102",
"102",
"107",
"104",
"108",
"112",
"127",
"141",
"140",
"152",
"161",
"148",
"154",
"154",
"171",
"116",
"164",
"143",
"158",
"111",
"102",
"101",
"96",
"98",
"102",
"119",
"103",
"111",
"122",
"106",
"105",
"107",
"112",
"104",
"137",
"93",
"109",
"100",
"118",
"90",
"94",
"101",
"98",
"105",
"115",
"112",
"98",
"125",
"108",
"100",
"100",
"104",
"94",
"103",
"96",
"77",
"122",
"106",
"108",
"106",
"105",
"101",
"98",
"96",
"104",
"98",
"91",
"96",
"106",
"94",
"105",
"91",
"85",
"102",
"101",
"94",
"83",
"87",
"106",
"80",
"100",
"81",
"93",
"79",
"102",
"86",
"108",
"96",
"99",
"92",
"125",
"100",
"120",
"88",
"121",
"83",
"102",
"93",
"102",
"93",
"118",
"98",
"105",
"95",
"95",
"100",
"108",
"74",
"98",
"91",
"91",
"81",
"89",
"96",
"103",
"107",
"96",
"79",
"116",
"102",
"106",
"105",
"103",
"86",
"95",
"78",
"102",
"90",
"106",
"104",
"107",
"83",
"121",
"87",
"89",
"90",
"89",
"76",
"111",
"109",
"89",
"78",
"87",
"111",
"101",
"95",
"83",
"104",
"108",
"121",
"99",
"99",
"111",
"114",
"114",
"111",
"107",
"127",
"119",
"139",
"146",
"159",
"215",
"296",
"409",
"574",
"920",
"1424",
"2123",
"3126",
"4277",
"5547",
"7306",
"8400",
"10072",
"10796",
"11756",
"11486",
"11372",
"10282",
"9209",
"7629",
"6160",
"4599",
"3338",
"2407",
"1652",
"1091",
"723",
"422",
"284",
"181",
"129",
"125",
"113",
"92",
"94",
"108",
"82",
"89",
"103",
"94",
"75",
"80",
"91",
"91",
"94",
"69",
"80",
"100",
"87",
"90",
"103",
"83",
"95",
"103",
"95",
"92",
"113",
"102",
"118",
"102",
"99",
"104",
"111",
"100",
"119",
"120",
"118",
"115",
"101",
"142",
"139",
"148",
"224",
"249",
"312",
"472",
"590",
"772",
"1008",
"1129",
"1409",
"1615",
"1708",
"1676",
"1839",
"1740",
"1686",
"1454",
"1373",
"1169",
"991",
"802",
"655",
"441",
"401",
"319",
"249",
"218",
"166",
"173",
"127",
"91",
"90",
"100",
"91",
"92",
"74",
"67",
"78",
"80",
"74",
"52",
"63",
"94",
"76",
"64",
"68",
"74",
"54",
"63",
"81",
"77",
"73",
"54",
"82",
"62",
"78",
"69",
"61",
"55",
"79",
"63",
"59",
"74",
"72",
"60",
"68",
"62",
"73",
"63",
"74",
"51",
"67",
"62",
"59",
"63",
"73",
"50",
"72",
"66",
"60",
"75",
"68",
"72",
"57",
"61",
"66",
"49",
"53",
"65",
"78",
"56",
"54",
"60",
"69",
"46",
"66",
"66",
"61",
"62",
"64",
"64",
"65",
"69",
"69",
"69",
"64",
"57",
"64",
"54",
"60",
"55",
"70",
"53",
"49",
"64",
"55",
"64",
"57",
"54",
"67",
"70",
"52",
"64",
"79",
"59",
"68",
"77",
"65",
"50",
"61",
"74",
"48",
"59",
"63",
"55",
"66",
"70",
"57",
"52",
"72",
"41",
"65",
"62",
"67",
"56",
"61",
"54",
"54",
"61",
"56",
"50",
"65",
"65",
"54",
"86",
"57",
"62",
"53",
"50",
"66",
"76",
"61",
"65",
"70",
"69",
"52",
"56",
"60",
"43",
"63",
"75",
"46",
"57",
"75",
"52",
"52",
"59",
"65",
"46",
"56",
"61",
"61",
"65",
"55",
"43",
"59",
"56",
"59",
"46",
"35",
"46",
"53",
"68",
"51",
"51",
"49",
"62",
"50",
"46",
"67",
"53",
"44",
"41",
"61",
"50",
"62",
"66",
"50",
"50",
"49",
"60",
"53",
"64",
"50",
"42",
"62",
"61",
"61",
"54",
"43",
"55",
"49",
"65",
"43",
"47",
"60",
"61",
"41",
"54",
"69",
"47",
"67",
"53",
"66",
"59",
"52",
"56",
"43",
"54",
"53",
"54",
"63",
"56",
"63",
"56",
"69",
"64",
"54",
"61",
"49",
"46",
"60",
"59",
"60",
"53",
"62",
"54",
"74",
"57",
"59",
"56",
"68",
"59",
"64",
"62",
"68",
"56",
"87",
"50",
"72",
"62",
"68",
"85",
"80",
"76",
"85",
"75",
"73",
"86",
"81",
"99",
"90",
"88",
"124",
"98",
"85",
"122",
"126",
"120",
"134",
"140",
"166",
"159",
"169",
"179",
"208",
"221",
"250",
"254",
"243",
"321",
"298",
"312",
"315",
"313",
"349",
"299",
"388",
"368",
"357",
"326",
"328",
"332",
"308",
"313",
"282",
"275",
"241",
"245",
"254",
"239",
"199",
"186",
"172",
"137",
"168",
"158",
"111",
"128",
"124",
"100",
"103",
"103",
"108",
"89",
"85",
"88",
"73",
"69",
"101",
"74",
"98",
"101",
"138",
"137",
"170",
"157",
"168",
"155",
"208",
"200",
"208",
"220",
"194",
"222",
"207",
"191",
"178",
"157",
"135",
"114",
"120",
"91",
"73",
"67",
"65",
"56",
"65",
"36",
"53",
"37",
"53",
"43",
"35309",
"Channel_info_start",
"Channel : Mg",
"Points : 0",
"Range : 0.000000 - 0.000000",
"Step : 0.010000",
"Channel_info_end",
"Channel_info_start",
"Channel : Al",
"Points : 0",
"Range : 0.000000 - 0.000000",
"Step : 0.010000",
"Channel_info_end",
"Channel_info_start",
"Channel : Si",
"Points : 0",
"Range : 0.000000 - 0.000000",
"Step : 0.010000",
"Channel_info_end",
"Channel_info_start",
"Channel : P ",
"Points : 0",
"Range : 0.000000 - 0.000000",
"Step : 0.010000",
"Channel_info_end",
"Channel_info_start",
"Channel : S ",
"Points : 0",
"Range : 0.000000 - 0.000000",
"Step : 0.010000",
"Channel_info_end",
"Channel_info_start",
"Channel : Cl",
"Points : 0",
"Range : 0.000000 - 0.000000",
"Step : 0.010000",
"Channel_info_end",
"Channel_info_start",
"Channel : K ",
"Points : 0",
"Range : 0.000000 - 0.000000",
"Step : 0.010000",
"Channel_info_end",
"Channel_info_start",
"Channel : Ca",
"Points : 0",
"Range : 0.000000 - 0.000000",
"Step : 0.010000",
"Channel_info_end",
"Channel_info_start",
"Channel : Ti",
"Points : 0",
"Range : 0.000000 - 0.000000",
"Step : 0.010000",
"Channel_info_end",
"Channel_info_start",
"Channel : V ",
"Points : 0",
"Range : 0.000000 - 0.000000",
"Step : 0.010000",
"Channel_info_end",
"Channel_info_start",
"Channel : Cr",
"Points : 0",
"Range : 0.000000 - 0.000000",
"Step : 0.010000",
"Channel_info_end",
"Channel_info_start",
"Channel : Mn",
"Points : 0",
"Range : 0.000000 - 0.000000",
"Step : 0.010000",
"Channel_info_end",
"Channel_info_start",
"Channel : Fe",
"Points : 0",
"Range : 0.000000 - 0.000000",
"Step : 0.010000",
"Channel_info_end",
"Channel_info_start",
"Channel : Cu",
"Points : 0",
"Range : 0.000000 - 0.000000",
"Step : 0.010000",
"Channel_info_end",
"Channel_info_start",
"Channel : Zn",
"Points : 0",
"Range : 0.000000 - 0.000000",
"Step : 0.010000",
"Channel_info_end",
"Channel_info_start",
"Channel : Sr",
"Points : 0",
"Range : 0.000000 - 0.000000",
"Step : 0.010000",
"Channel_info_end",
"Channel_info_start",
"Channel : Pb",
"Points : 0",
"Range : 0.000000 - 0.000000",
"Step : 0.010000",
"Channel_info_end",
"",
"Qualitative Result",
"--------------------------------------------------------------------------------",
"Element :  Br, P , Cs, Ce",
"",
"Peak List",
"--------------------------------------------------------------------------------",
"Channel               Line        keV     Net Int.(cps/uA)",
"--------------------------------------------------------------------------------",
"Na                    BrLa         1.51     0.171",
"                      P Ka         2.00     0.019",
"                      CsLaESC      2.55     0.015",
"                      ----         3.70     0.295",
"                      CsLa         4.28     2.272",
"                      CsLb1        4.63     1.416",
"                      CsLb2        4.93     0.324",
"                      CsLg1        5.26     0.136",
"                      CeLb1        5.26     0.027",
"                      CsLg2        5.54     0.088",
"                      BrKa        11.88     5.346",
"                      BrKb        13.28     0.839",
"                      ----        19.12     0.132",
"                      ----        19.40     0.076",
"                      ----        19.92     0.047",
"--------------------------------------------------------------------------------",
"",
"Quantitative Result",
"--------------------------------------------------------------------------------",
"Analyte               Result             Std.Dev. Proc.-Calc. Line Intensity(cps/uA)",
"--------------------------------------------------------------------------------",
"====[No. 1 Layer]====< Layer1               >===============================",
"Layer1                   0.000 ug/cm2    -------- Flux       -------- --------",