File: inputs/edxCalibration/edx_raw/2010-06/CsBr 15760.20100525225714.csv
"Sample    : CsBr 15760",
"Operator  : luisf",
"Comment  : cubatao-g-policarbonato",
"Group     : kerr2007ag180cal_lt",
"Date       : 2010-05-25 22:53:11",
"",
"Mesurement Condition",
"------------------------------------------------------------------------------------",
"Instrument : 700HS2   Atmosphere : Vac.   Collimator : 10(mm)   Spin : No",
"------------------------------------------------------------------------------------",
"Analyte               TG kV   uA      FI Acq.(keV)  Anal.(keV)  Time(sec)     DT(%)",
"------------------------------------------------------------------------------------",
"Na                    Rh 50  237-Auto Al  0 - 20    0.8 - 1.2   Live -  180   14",
"",
"<Profile>",
"Channel_info_start",
"Channel : Na",
"Points : 2048",
"Range : 0.000000 - 20.48",
"Step : 0.010000",
"Channel_info_end",
"0",
"0",
"0",
"0",
"0",
"0",
"0",
"0",
"0",
"0",
"0",
"0",
"0",
"0",
"1",
"5",
"24",
"17",
"26",
"25",
"24",
"27",
"25",
"28",
"29",
"24",
"30",
"31",
"20",
"27",
"22",
"26",
"23",
"22",
"20",
"31",
"17",
"15",
"25",
"20",
"33",
"35",
"24",
"29",
"11",
"29",
"23",
"23",
"38",
"35",
"26",
"33",
"26",
"28",
"18",
"16",
"23",
"26",
"22",
"15",
"30",
"23",
"39",
"39",
"47",
"50",
"49",
"55",
"47",
"54",
"114",
"194",
"321",
"467",
"547",
"596",
"566",
"463",
"361",
"251",
"170",
"90",
"80",
"47",
"49",
"35",
"40",
"28",
"43",
"30",
"23",
"24",
"26",
"20",
"28",
"31",
"36",
"42",
"48",
"48",
"81",
"67",
"59",
"44",
"34",
"36",
"33",
"30",
"21",
"30",
"29",
"24",
"24",
"37",
"22",
"31",
"35",
"24",
"27",
"28",
"30",
"28",
"34",
"51",
"50",
"68",
"73",
"67",
"76",
"62",
"52",
"41",
"46",
"28",
"27",
"28",
"27",
"38",
"26",
"35",
"42",
"40",
"49",
"66",
"69",
"67",
"55",
"59",
"33",
"31",
"27",
"27",
"31",
"26",
"20",
"25",
"36",
"30",
"39",
"39",
"30",
"29",
"34",
"38",
"21",
"27",
"35",
"31",
"33",
"40",
"24",
"23",
"43",
"34",
"39",
"47",
"63",
"62",
"98",
"150",
"228",
"289",
"395",
"511",
"601",
"644",
"649",
"552",
"534",
"426",
"447",
"339",
"285",
"225",
"186",
"155",
"114",
"115",
"139",
"143",
"165",
"170",
"177",
"171",
"183",
"263",
"340",
"464",
"809",
"1411",
"2465",
"3603",
"5343",
"6350",
"7075",
"6802",
"5836",
"4400",
"3169",
"1893",
"1043",
"553",
"348",
"309",
"359",
"609",
"992",
"1649",
"2509",
"3265",
"4100",
"4402",
"4503",
"4044",
"3510",
"2794",
"2270",
"1607",
"1330",
"804",
"638",
"499",
"554",
"554",
"814",
"1015",
"1159",
"1170",
"1055",
"908",
"713",
"487",
"372",
"208",
"170",
"136",
"118",
"120",
"181",
"212",
"286",
"399",
"518",
"530",
"583",
"599",
"533",
"428",
"292",
"207",
"164",
"176",
"176",
"211",
"269",
"293",
"340",
"359",
"371",
"321",
"283",
"219",
"177",
"130",
"139",
"115",
"109",
"70",
"87",
"60",
"68",
"70",
"69",
"56",
"68",
"54",
"47",
"46",
"69",
"59",
"51",
"60",
"88",
"70",
"79",
"74",
"64",
"90",
"78",
"73",
"81",
"83",
"95",
"83",
"92",
"100",
"98",
"86",
"116",
"103",
"83",
"81",
"107",
"88",
"98",
"101",
"105",
"92",
"109",
"90",
"103",
"104",
"99",
"109",
"115",
"115",
"111",
"116",
"113",
"129",
"124",
"112",
"106",
"112",
"124",
"98",
"106",
"133",
"111",
"124",
"95",
"120",
"104",
"122",
"85",
"98",
"103",
"106",
"101",
"103",
"98",
"72",
"94",
"88",
"91",
"93",
"85",
"80",
"106",
"96",
"102",
"77",
"102",
"94",
"85",
"93",
"88",
"82",
"101",
"96",
"89",
"108",
"109",
"96",
"100",
"78",
"106",
"81",
"115",
"91",
"78",
"111",
"100",
"88",
"111",
"95",
"131",
"115",
"116",
"127",
"106",
"146",
"142",
"128",
"117",
"114",
"117",
"112",
"100",
"109",
"112",
"127",
"111",
"104",
"138",
"99",
"124",
"95",
"102",
"114",
"130",
"102",
"124",
"113",
"111",
"113",
"132",
"150",
"180",
"152",
"153",
"156",
"157",
"154",
"118",
"149",
"134",
"124",
"136",
"118",
"107",
"89",
"124",
"119",
"113",
"116",
"140",
"111",
"115",
"111",
"89",
"99",
"104",
"88",
"106",
"107",
"130",
"104",
"103",
"125",
"100",
"106",
"100",
"95",
"126",
"92",
"106",
"100",
"127",
"105",
"87",
"94",
"115",
"94",
"112",
"81",
"103",
"109",
"112",
"99",
"125",
"103",
"93",
"103",
"104",
"106",
"99",
"106",
"88",
"104",
"80",
"103",
"96",
"102",
"107",
"96",
"98",
"96",
"86",
"102",
"105",
"109",
"108",
"94",
"109",
"108",
"92",
"118",
"118",
"109",
"96",
"125",
"107",
"83",
"116",
"95",
"95",
"92",
"105",
"99",
"77",
"101",
"109",
"107",
"109",
"106",
"120",
"87",
"98",
"108",
"126",
"104",
"100",
"104",
"90",
"101",
"129",
"80",
"103",
"103",
"99",
"119",
"115",
"116",
"96",
"78",
"122",
"103",
"111",
"108",
"98",
"103",
"106",
"113",
"89",
"94",
"106",
"101",
"115",
"116",
"115",
"100",
"101",
"122",
"99",
"109",
"93",
"90",
"120",
"96",
"128",
"117",
"100",
"108",
"115",
"112",
"139",
"115",
"133",
"169",
"166",
"257",
"365",
"546",
"798",
"1291",
"1967",
"2717",
"3982",
"5288",
"6822",
"7976",
"9534",
"10201",
"11280",
"11049",
"11262",
"10039",
"9100",
"7519",
"6147",
"4533",
"3450",
"2451",
"1751",
"1143",
"775",
"473",
"308",
"201",
"141",
"127",
"127",
"100",
"107",
"105",
"109",
"108",
"93",
"83",
"99",
"107",
"93",
"81",
"98",
"88",
"99",
"119",
"100",
"80",
"112",
"88",
"94",
"106",
"105",
"89",
"100",
"87",
"106",
"95",
"94",
"114",
"99",
"118",
"120",
"109",
"121",
"93",
"121",
"126",
"150",
"175",
"212",
"233",
"325",
"430",
"577",
"682",
"863",
"1067",
"1350",
"1474",
"1609",
"1763",
"1673",
"1762",
"1650",
"1451",
"1326",
"1133",
"902",
"773",
"675",
"540",
"460",
"320",
"291",
"235",
"184",
"150",
"136",
"116",
"102",
"102",
"108",
"76",
"79",
"74",
"79",
"69",
"75",
"80",
"86",
"76",
"82",
"72",
"63",
"83",
"69",
"66",
"77",
"54",
"72",
"73",
"88",
"91",
"87",
"68",
"88",
"65",
"87",
"66",
"67",
"76",
"75",
"69",
"66",
"62",
"74",
"77",
"72",
"81",
"73",
"82",
"65",
"87",
"76",
"72",
"73",
"61",
"68",
"70",
"64",
"66",
"73",
"54",
"61",
"80",
"75",
"80",
"80",
"65",
"64",
"74",
"72",
"76",
"83",
"63",
"72",
"89",
"66",
"63",
"81",
"57",
"46",
"65",
"74",
"61",
"79",
"69",
"61",
"60",
"65",
"69",
"59",
"66",
"66",
"53",
"63",
"60",
"76",
"60",
"60",
"63",
"68",
"65",
"63",
"72",
"66",
"75",
"66",
"67",
"86",
"75",
"60",
"54",
"61",
"56",
"70",
"50",
"68",
"77",
"68",
"72",
"65",
"69",
"60",
"76",
"63",
"56",
"55",
"70",
"60",
"54",
"68",
"62",
"56",
"62",
"76",
"76",
"65",
"76",
"74",
"63",
"56",
"54",
"57",
"59",
"60",
"67",
"75",
"47",
"51",
"67",
"61",
"50",
"61",
"68",
"82",
"53",
"63",
"60",
"61",
"60",
"49",
"62",
"54",
"66",
"57",
"44",
"57",
"53",
"60",
"61",
"67",
"92",
"62",
"47",
"52",
"61",
"64",
"49",
"61",
"60",
"72",
"53",
"48",
"60",
"44",
"65",
"57",
"59",
"52",
"64",
"51",
"57",
"65",
"52",
"70",
"61",
"51",
"64",
"65",
"55",
"61",
"60",
"62",
"49",
"55",
"67",
"79",
"54",
"62",
"54",
"69",
"43",
"70",
"63",
"60",
"59",
"69",
"51",
"50",
"50",
"68",
"65",
"64",
"40",
"56",
"53",
"61",
"48",
"43",
"50",
"65",
"63",
"53",
"64",
"57",
"69",
"60",
"59",
"77",
"65",
"76",
"62",
"65",
"78",
"73",
"65",
"77",
"68",
"83",
"68",
"66",
"83",
"83",
"62",
"78",
"70",
"74",
"89",
"98",
"94",
"107",
"126",
"116",
"124",
"126",
"141",
"173",
"146",
"150",
"164",
"185",
"205",
"245",
"245",
"241",
"242",
"280",
"285",
"351",
"304",
"354",
"332",
"358",
"365",
"377",
"365",
"382",
"351",
"358",
"323",
"340",
"341",
"326",
"274",
"320",
"250",
"240",
"215",
"250",
"197",
"195",
"189",
"176",
"154",
"116",
"147",
"131",
"112",
"101",
"98",
"98",
"81",
"75",
"89",
"96",
"92",
"82",
"102",
"103",
"115",
"131",
"125",
"128",
"177",
"183",
"194",
"176",
"198",
"250",
"199",
"249",
"212",
"241",
"244",
"202",
"198",
"152",
"143",
"117",
"104",
"91",
"83",
"77",
"63",
"54",
"47",
"63",
"40",
"59",
"56",
"37718",
"Channel_info_start",
"Channel : Mg",
"Points : 0",
"Range : 0.000000 - 0.000000",
"Step : 0.010000",
"Channel_info_end",
"Channel_info_start",
"Channel : Al",
"Points : 0",
"Range : 0.000000 - 0.000000",
"Step : 0.010000",
"Channel_info_end",
"Channel_info_start",
"Channel : Si",
"Points : 0",
"Range : 0.000000 - 0.000000",
"Step : 0.010000",
"Channel_info_end",
"Channel_info_start",
"Channel : P ",
"Points : 0",
"Range : 0.000000 - 0.000000",
"Step : 0.010000",
"Channel_info_end",
"Channel_info_start",
"Channel : S ",
"Points : 0",
"Range : 0.000000 - 0.000000",
"Step : 0.010000",
"Channel_info_end",
"Channel_info_start",
"Channel : Cl",
"Points : 0",
"Range : 0.000000 - 0.000000",
"Step : 0.010000",
"Channel_info_end",
"Channel_info_start",
"Channel : K ",
"Points : 0",
"Range : 0.000000 - 0.000000",
"Step : 0.010000",
"Channel_info_end",
"Channel_info_start",
"Channel : Ca",
"Points : 0",
"Range : 0.000000 - 0.000000",
"Step : 0.010000",
"Channel_info_end",
"Channel_info_start",
"Channel : Ti",
"Points : 0",
"Range : 0.000000 - 0.000000",
"Step : 0.010000",
"Channel_info_end",
"Channel_info_start",
"Channel : V ",
"Points : 0",
"Range : 0.000000 - 0.000000",
"Step : 0.010000",
"Channel_info_end",
"Channel_info_start",
"Channel : Cr",
"Points : 0",
"Range : 0.000000 - 0.000000",
"Step : 0.010000",
"Channel_info_end",
"Channel_info_start",
"Channel : Mn",
"Points : 0",
"Range : 0.000000 - 0.000000",
"Step : 0.010000",
"Channel_info_end",
"Channel_info_start",
"Channel : Fe",
"Points : 0",
"Range : 0.000000 - 0.000000",
"Step : 0.010000",
"Channel_info_end",
"Channel_info_start",
"Channel : Cu",
"Points : 0",
"Range : 0.000000 - 0.000000",
"Step : 0.010000",
"Channel_info_end",
"Channel_info_start",
"Channel : Zn",
"Points : 0",
"Range : 0.000000 - 0.000000",
"Step : 0.010000",
"Channel_info_end",
"Channel_info_start",
"Channel : Sr",
"Points : 0",
"Range : 0.000000 - 0.000000",
"Step : 0.010000",
"Channel_info_end",
"Channel_info_start",
"Channel : Pb",
"Points : 0",
"Range : 0.000000 - 0.000000",
"Step : 0.010000",
"Channel_info_end",
"",
"Qualitative Result",
"--------------------------------------------------------------------------------",
"Element :  Br, P , Cs, Ce",
"",
"Peak List",
"--------------------------------------------------------------------------------",
"Channel               Line        keV     Net Int.(cps/uA)",
"--------------------------------------------------------------------------------",
"Na                    BrLa         1.50     0.155",
"                      P Ka         2.00     0.014",
"                      CsLaESC      2.52     0.017",
"                      ----         3.70     0.183",
"                      CsLa         4.28     2.329",
"                      CsLb1        4.63     1.487",
"                      CsLb2        4.94     0.355",
"                      CsLg1        5.28     0.140",
"                      CeLb1        5.28     0.036",
"                      CsLg2        5.54     0.099",
"                      BrKa        11.88     5.174",
"                      BrKb        13.29     0.770",
"                      ----        19.24     0.138",
"                      ----        19.97     0.062",
"--------------------------------------------------------------------------------",
"",
"Quantitative Result",
"--------------------------------------------------------------------------------",
"Analyte               Result             Std.Dev. Proc.-Calc. Line Intensity(cps/uA)",
"--------------------------------------------------------------------------------",
"====[No. 1 Layer]====< Layer1               >===============================",
"Layer1                   0.000 ug/cm2    -------- Flux       -------- --------",