File: inputs/edxCalibration/edx_raw/2010-06/CsBr 31512.20100525230517.csv
"Sample    : CsBr 31512",
"Operator  : luisf",
"Comment  : cubatao-g-policarbonato",
"Group     : kerr2007ag180cal_lt",
"Date       : 2010-05-25 23:01:13",
"",
"Mesurement Condition",
"------------------------------------------------------------------------------------",
"Instrument : 700HS2   Atmosphere : Vac.   Collimator : 10(mm)   Spin : No",
"------------------------------------------------------------------------------------",
"Analyte               TG kV   uA      FI Acq.(keV)  Anal.(keV)  Time(sec)     DT(%)",
"------------------------------------------------------------------------------------",
"Na                    Rh 50  237-Auto Al  0 - 20    0.8 - 1.2   Live -  179   15",
"",
"<Profile>",
"Channel_info_start",
"Channel : Na",
"Points : 2048",
"Range : 0.000000 - 20.48",
"Step : 0.010000",
"Channel_info_end",
"0",
"0",
"0",
"0",
"0",
"0",
"0",
"0",
"0",
"0",
"0",
"0",
"0",
"0",
"0",
"16",
"38",
"22",
"24",
"29",
"27",
"36",
"34",
"29",
"29",
"33",
"34",
"20",
"24",
"27",
"28",
"21",
"26",
"20",
"13",
"29",
"28",
"22",
"34",
"21",
"18",
"25",
"28",
"15",
"20",
"24",
"27",
"29",
"24",
"28",
"31",
"26",
"26",
"21",
"30",
"25",
"27",
"16",
"24",
"22",
"29",
"33",
"29",
"38",
"38",
"43",
"56",
"50",
"51",
"90",
"120",
"228",
"343",
"471",
"599",
"670",
"609",
"490",
"401",
"240",
"185",
"100",
"81",
"39",
"40",
"39",
"40",
"22",
"37",
"34",
"34",
"28",
"30",
"17",
"29",
"36",
"42",
"53",
"61",
"84",
"99",
"97",
"86",
"50",
"44",
"50",
"24",
"25",
"31",
"21",
"25",
"23",
"26",
"24",
"25",
"27",
"26",
"18",
"24",
"23",
"28",
"26",
"37",
"30",
"56",
"63",
"57",
"79",
"84",
"67",
"61",
"36",
"27",
"33",
"43",
"23",
"33",
"29",
"28",
"42",
"44",
"43",
"57",
"63",
"51",
"62",
"36",
"38",
"47",
"28",
"26",
"33",
"14",
"30",
"36",
"28",
"26",
"30",
"41",
"35",
"23",
"30",
"27",
"43",
"20",
"22",
"31",
"43",
"22",
"40",
"34",
"39",
"37",
"52",
"51",
"51",
"44",
"74",
"120",
"150",
"282",
"443",
"646",
"803",
"939",
"979",
"920",
"743",
"697",
"516",
"409",
"375",
"325",
"228",
"200",
"149",
"143",
"120",
"151",
"178",
"177",
"189",
"184",
"189",
"221",
"205",
"305",
"458",
"779",
"1366",
"2283",
"3442",
"4998",
"6028",
"6833",
"6542",
"5614",
"4165",
"2914",
"1798",
"1066",
"540",
"347",
"269",
"343",
"523",
"989",
"1581",
"2460",
"3213",
"3943",
"4254",
"4407",
"3995",
"3427",
"2639",
"2121",
"1570",
"1151",
"774",
"646",
"507",
"525",
"585",
"755",
"913",
"1079",
"1100",
"1050",
"849",
"681",
"473",
"357",
"218",
"169",
"120",
"136",
"138",
"193",
"206",
"305",
"424",
"497",
"558",
"585",
"573",
"514",
"382",
"289",
"252",
"175",
"152",
"152",
"219",
"232",
"273",
"304",
"356",
"394",
"291",
"257",
"221",
"146",
"135",
"128",
"142",
"111",
"88",
"78",
"63",
"72",
"54",
"67",
"51",
"48",
"54",
"49",
"75",
"68",
"53",
"74",
"59",
"69",
"79",
"79",
"74",
"75",
"111",
"79",
"78",
"91",
"75",
"71",
"73",
"75",
"79",
"103",
"98",
"108",
"79",
"84",
"90",
"102",
"107",
"108",
"87",
"89",
"93",
"74",
"94",
"99",
"91",
"95",
"104",
"101",
"82",
"121",
"106",
"103",
"95",
"111",
"93",
"98",
"112",
"114",
"90",
"117",
"98",
"97",
"92",
"125",
"106",
"89",
"76",
"82",
"97",
"88",
"91",
"88",
"85",
"91",
"78",
"87",
"74",
"71",
"89",
"99",
"98",
"97",
"76",
"107",
"98",
"97",
"98",
"99",
"117",
"113",
"91",
"101",
"94",
"104",
"85",
"116",
"91",
"89",
"90",
"107",
"117",
"107",
"108",
"99",
"116",
"93",
"89",
"129",
"120",
"128",
"112",
"106",
"92",
"113",
"114",
"108",
"111",
"126",
"118",
"95",
"106",
"93",
"101",
"103",
"90",
"84",
"110",
"105",
"113",
"92",
"116",
"110",
"92",
"102",
"112",
"124",
"93",
"110",
"130",
"138",
"124",
"150",
"150",
"142",
"159",
"182",
"138",
"162",
"146",
"141",
"123",
"116",
"113",
"89",
"90",
"116",
"114",
"97",
"99",
"97",
"108",
"105",
"93",
"115",
"95",
"110",
"97",
"103",
"103",
"98",
"104",
"104",
"110",
"117",
"99",
"130",
"100",
"107",
"114",
"111",
"113",
"119",
"80",
"111",
"127",
"112",
"113",
"97",
"93",
"113",
"103",
"128",
"90",
"103",
"97",
"93",
"93",
"107",
"98",
"76",
"113",
"120",
"94",
"93",
"80",
"106",
"84",
"79",
"101",
"100",
"99",
"103",
"95",
"110",
"95",
"97",
"100",
"100",
"106",
"115",
"95",
"99",
"115",
"106",
"91",
"82",
"99",
"88",
"95",
"98",
"74",
"93",
"105",
"100",
"108",
"105",
"106",
"112",
"91",
"91",
"105",
"115",
"104",
"103",
"94",
"137",
"98",
"88",
"98",
"84",
"95",
"85",
"108",
"92",
"88",
"111",
"91",
"108",
"85",
"105",
"86",
"104",
"81",
"107",
"81",
"111",
"100",
"86",
"87",
"99",
"97",
"100",
"114",
"107",
"107",
"91",
"108",
"110",
"104",
"115",
"92",
"110",
"94",
"116",
"115",
"90",
"117",
"124",
"116",
"104",
"111",
"140",
"125",
"166",
"247",
"368",
"537",
"875",
"1317",
"1993",
"2662",
"4099",
"5296",
"7123",
"8214",
"10019",
"10883",
"11687",
"11657",
"11656",
"10596",
"9652",
"7952",
"6732",
"4892",
"3830",
"2648",
"1821",
"1179",
"763",
"492",
"323",
"218",
"132",
"143",
"138",
"104",
"101",
"85",
"80",
"105",
"104",
"98",
"114",
"101",
"100",
"103",
"99",
"68",
"102",
"90",
"87",
"85",
"84",
"84",
"98",
"84",
"102",
"84",
"104",
"94",
"97",
"88",
"102",
"107",
"106",
"93",
"99",
"124",
"107",
"116",
"104",
"131",
"168",
"165",
"206",
"277",
"307",
"412",
"610",
"714",
"927",
"1179",
"1404",
"1534",
"1691",
"1798",
"1848",
"1758",
"1629",
"1580",
"1383",
"1156",
"991",
"752",
"683",
"486",
"449",
"329",
"266",
"230",
"188",
"153",
"127",
"115",
"87",
"77",
"93",
"80",
"67",
"76",
"72",
"80",
"65",
"46",
"74",
"68",
"61",
"69",
"71",
"80",
"64",
"62",
"81",
"78",
"75",
"55",
"77",
"63",
"77",
"76",
"69",
"64",
"73",
"67",
"76",
"78",
"72",
"71",
"50",
"72",
"77",
"71",
"61",
"68",
"63",
"64",
"80",
"59",
"71",
"85",
"69",
"73",
"67",
"78",
"75",
"54",
"66",
"75",
"68",
"75",
"86",
"59",
"57",
"78",
"69",
"65",
"84",
"72",
"60",
"90",
"62",
"71",
"65",
"63",
"72",
"79",
"74",
"80",
"72",
"59",
"76",
"69",
"78",
"78",
"75",
"79",
"64",
"67",
"55",
"57",
"60",
"60",
"55",
"63",
"69",
"55",
"57",
"72",
"72",
"57",
"49",
"61",
"67",
"65",
"57",
"62",
"56",
"64",
"64",
"54",
"86",
"57",
"62",
"53",
"65",
"62",
"49",
"62",
"72",
"66",
"73",
"49",
"56",
"48",
"62",
"56",
"69",
"48",
"67",
"66",
"65",
"69",
"69",
"50",
"48",
"69",
"56",
"54",
"60",
"61",
"48",
"47",
"67",
"72",
"73",
"52",
"62",
"68",
"65",
"57",
"62",
"63",
"48",
"44",
"66",
"68",
"50",
"55",
"53",
"55",
"57",
"55",
"71",
"68",
"46",
"41",
"68",
"52",
"36",
"49",
"59",
"53",
"60",
"40",
"64",
"51",
"47",
"38",
"53",
"67",
"59",
"57",
"49",
"66",
"47",
"40",
"54",
"43",
"50",
"46",
"50",
"68",
"61",
"50",
"69",
"63",
"60",
"56",
"59",
"51",
"69",
"56",
"52",
"48",
"50",
"47",
"53",
"59",
"51",
"54",
"55",
"43",
"63",
"57",
"50",
"56",
"49",
"72",
"66",
"49",
"68",
"47",
"60",
"62",
"57",
"53",
"61",
"60",
"59",
"62",
"46",
"54",
"53",
"57",
"54",
"52",
"80",
"60",
"69",
"67",
"49",
"72",
"55",
"71",
"74",
"69",
"59",
"69",
"76",
"87",
"85",
"66",
"99",
"92",
"74",
"98",
"98",
"95",
"112",
"77",
"135",
"111",
"130",
"139",
"150",
"167",
"182",
"176",
"232",
"231",
"238",
"216",
"245",
"266",
"298",
"290",
"310",
"332",
"341",
"303",
"323",
"329",
"370",
"307",
"383",
"302",
"321",
"307",
"319",
"282",
"226",
"293",
"256",
"251",
"247",
"199",
"188",
"163",
"176",
"131",
"120",
"123",
"119",
"103",
"84",
"106",
"111",
"99",
"77",
"91",
"80",
"86",
"81",
"97",
"105",
"91",
"138",
"117",
"140",
"155",
"168",
"163",
"205",
"194",
"215",
"235",
"212",
"223",
"240",
"208",
"191",
"167",
"165",
"144",
"136",
"98",
"103",
"77",
"75",
"64",
"56",
"65",
"44",
"52",
"56",
"54",
"35720",
"Channel_info_start",
"Channel : Mg",
"Points : 0",
"Range : 0.000000 - 0.000000",
"Step : 0.010000",
"Channel_info_end",
"Channel_info_start",
"Channel : Al",
"Points : 0",
"Range : 0.000000 - 0.000000",
"Step : 0.010000",
"Channel_info_end",
"Channel_info_start",
"Channel : Si",
"Points : 0",
"Range : 0.000000 - 0.000000",
"Step : 0.010000",
"Channel_info_end",
"Channel_info_start",
"Channel : P ",
"Points : 0",
"Range : 0.000000 - 0.000000",
"Step : 0.010000",
"Channel_info_end",
"Channel_info_start",
"Channel : S ",
"Points : 0",
"Range : 0.000000 - 0.000000",
"Step : 0.010000",
"Channel_info_end",
"Channel_info_start",
"Channel : Cl",
"Points : 0",
"Range : 0.000000 - 0.000000",
"Step : 0.010000",
"Channel_info_end",
"Channel_info_start",
"Channel : K ",
"Points : 0",
"Range : 0.000000 - 0.000000",
"Step : 0.010000",
"Channel_info_end",
"Channel_info_start",
"Channel : Ca",
"Points : 0",
"Range : 0.000000 - 0.000000",
"Step : 0.010000",
"Channel_info_end",
"Channel_info_start",
"Channel : Ti",
"Points : 0",
"Range : 0.000000 - 0.000000",
"Step : 0.010000",
"Channel_info_end",
"Channel_info_start",
"Channel : V ",
"Points : 0",
"Range : 0.000000 - 0.000000",
"Step : 0.010000",
"Channel_info_end",
"Channel_info_start",
"Channel : Cr",
"Points : 0",
"Range : 0.000000 - 0.000000",
"Step : 0.010000",
"Channel_info_end",
"Channel_info_start",
"Channel : Mn",
"Points : 0",
"Range : 0.000000 - 0.000000",
"Step : 0.010000",
"Channel_info_end",
"Channel_info_start",
"Channel : Fe",
"Points : 0",
"Range : 0.000000 - 0.000000",
"Step : 0.010000",
"Channel_info_end",
"Channel_info_start",
"Channel : Cu",
"Points : 0",
"Range : 0.000000 - 0.000000",
"Step : 0.010000",
"Channel_info_end",
"Channel_info_start",
"Channel : Zn",
"Points : 0",
"Range : 0.000000 - 0.000000",
"Step : 0.010000",
"Channel_info_end",
"Channel_info_start",
"Channel : Sr",
"Points : 0",
"Range : 0.000000 - 0.000000",
"Step : 0.010000",
"Channel_info_end",
"Channel_info_start",
"Channel : Pb",
"Points : 0",
"Range : 0.000000 - 0.000000",
"Step : 0.010000",
"Channel_info_end",
"",
"Qualitative Result",
"--------------------------------------------------------------------------------",
"Element :  Br, P , Cs, Ce, Ru",
"",
"Peak List",
"--------------------------------------------------------------------------------",
"Channel               Line        keV     Net Int.(cps/uA)",
"--------------------------------------------------------------------------------",
"Na                    BrLa         1.50     0.174",
"                      P Ka         1.99     0.020",
"                      CsLaESC      2.56     0.016",
"                      ----         3.70     0.295",
"                      CsLa         4.28     2.272",
"                      CsLb1        4.63     1.453",
"                      CsLb2        4.94     0.327",
"                      CsLg1        5.28     0.136",
"                      CeLb1        5.28     0.035",
"                      CsLg2        5.55     0.096",
"                      BrKa        11.90     5.370",
"                      BrKb        13.28     0.838",
"                      RuKa        19.24     0.138",
"                      ----        20.00     0.078",
"--------------------------------------------------------------------------------",
"",
"Quantitative Result",
"--------------------------------------------------------------------------------",
"Analyte               Result             Std.Dev. Proc.-Calc. Line Intensity(cps/uA)",
"--------------------------------------------------------------------------------",
"====[No. 1 Layer]====< Layer1               >===============================",
"Layer1                   0.000 ug/cm2    -------- Flux       -------- --------",