File: inputs/edxCalibration/edx_raw/2010-06/CsBr 15760.20100611013025.csv
"Sample    : CsBr 15760",
"Operator  : Luís",
"Comment  : cubatao-g-policarbonato",
"Group     : kerr2007ag180cal_lt",
"Date       : 2010-06-11 01:26:23",
"",
"Mesurement Condition",
"------------------------------------------------------------------------------------",
"Instrument : 700HS2   Atmosphere : Vac.   Collimator : 10(mm)   Spin : No",
"------------------------------------------------------------------------------------",
"Analyte               TG kV   uA      FI Acq.(keV)  Anal.(keV)  Time(sec)     DT(%)",
"------------------------------------------------------------------------------------",
"Na                    Rh 50  152-Auto Al  0 - 20    0.8 - 1.2   Live -  180   14",
"",
"<Profile>",
"Channel_info_start",
"Channel : Na",
"Points : 2048",
"Range : 0.000000 - 20.48",
"Step : 0.010000",
"Channel_info_end",
"0",
"0",
"0",
"0",
"0",
"0",
"0",
"0",
"0",
"0",
"0",
"0",
"0",
"0",
"0",
"15",
"22",
"23",
"19",
"19",
"30",
"25",
"30",
"23",
"12",
"16",
"19",
"16",
"13",
"17",
"16",
"31",
"11",
"10",
"17",
"14",
"12",
"10",
"8",
"9",
"8",
"4",
"11",
"15",
"13",
"9",
"8",
"18",
"10",
"10",
"13",
"9",
"23",
"16",
"13",
"18",
"16",
"23",
"37",
"76",
"85",
"69",
"84",
"93",
"107",
"186",
"379",
"649",
"1000",
"1148",
"1291",
"1158",
"979",
"717",
"417",
"268",
"169",
"84",
"71",
"31",
"23",
"17",
"18",
"18",
"15",
"25",
"18",
"18",
"14",
"11",
"22",
"13",
"10",
"17",
"14",
"17",
"25",
"25",
"31",
"55",
"42",
"62",
"40",
"35",
"19",
"17",
"12",
"11",
"10",
"19",
"12",
"8",
"10",
"10",
"8",
"9",
"8",
"8",
"12",
"10",
"14",
"5",
"10",
"10",
"6",
"14",
"4",
"9",
"11",
"4",
"12",
"13",
"4",
"21",
"11",
"11",
"13",
"12",
"14",
"19",
"10",
"13",
"17",
"9",
"12",
"12",
"14",
"9",
"5",
"9",
"8",
"10",
"11",
"11",
"3",
"8",
"16",
"3",
"10",
"11",
"8",
"6",
"8",
"12",
"14",
"10",
"5",
"10",
"10",
"17",
"19",
"12",
"11",
"10",
"15",
"17",
"22",
"41",
"62",
"109",
"132",
"263",
"414",
"487",
"545",
"585",
"491",
"399",
"277",
"146",
"88",
"52",
"34",
"29",
"26",
"42",
"47",
"68",
"77",
"81",
"65",
"71",
"67",
"62",
"56",
"51",
"25",
"26",
"16",
"19",
"19",
"19",
"16",
"19",
"17",
"27",
"18",
"25",
"19",
"21",
"19",
"10",
"27",
"23",
"37",
"41",
"38",
"32",
"37",
"34",
"31",
"34",
"34",
"26",
"35",
"29",
"35",
"27",
"29",
"41",
"27",
"29",
"25",
"39",
"29",
"25",
"29",
"23",
"26",
"38",
"32",
"36",
"22",
"26",
"21",
"24",
"17",
"26",
"37",
"14",
"28",
"34",
"29",
"31",
"29",
"26",
"26",
"35",
"36",
"26",
"26",
"28",
"39",
"29",
"34",
"37",
"41",
"35",
"36",
"38",
"27",
"35",
"35",
"28",
"28",
"38",
"42",
"36",
"29",
"36",
"38",
"43",
"45",
"36",
"38",
"52",
"47",
"44",
"39",
"49",
"42",
"31",
"47",
"39",
"45",
"54",
"43",
"55",
"54",
"45",
"54",
"48",
"38",
"49",
"49",
"65",
"61",
"45",
"52",
"58",
"62",
"63",
"75",
"60",
"68",
"64",
"62",
"72",
"66",
"58",
"51",
"49",
"65",
"54",
"47",
"61",
"66",
"51",
"68",
"68",
"64",
"55",
"69",
"55",
"55",
"63",
"63",
"54",
"68",
"63",
"71",
"62",
"64",
"62",
"55",
"64",
"55",
"69",
"55",
"62",
"67",
"47",
"57",
"52",
"52",
"62",
"66",
"55",
"75",
"50",
"66",
"52",
"63",
"50",
"69",
"68",
"68",
"63",
"65",
"55",
"56",
"56",
"76",
"68",
"75",
"55",
"51",
"66",
"67",
"77",
"67",
"58",
"53",
"63",
"69",
"65",
"81",
"91",
"75",
"88",
"103",
"95",
"103",
"90",
"95",
"76",
"87",
"65",
"70",
"68",
"75",
"75",
"57",
"67",
"78",
"58",
"57",
"52",
"66",
"67",
"55",
"61",
"74",
"68",
"67",
"68",
"94",
"101",
"100",
"100",
"110",
"98",
"118",
"110",
"111",
"87",
"87",
"85",
"55",
"72",
"75",
"74",
"80",
"77",
"72",
"66",
"61",
"70",
"83",
"50",
"55",
"65",
"69",
"85",
"68",
"53",
"61",
"68",
"52",
"70",
"72",
"61",
"74",
"83",
"62",
"54",
"71",
"77",
"95",
"65",
"80",
"69",
"100",
"65",
"79",
"81",
"89",
"71",
"79",
"70",
"67",
"44",
"80",
"67",
"65",
"60",
"74",
"47",
"60",
"57",
"66",
"57",
"78",
"69",
"53",
"71",
"53",
"53",
"65",
"67",
"69",
"62",
"66",
"60",
"50",
"68",
"69",
"58",
"63",
"56",
"53",
"68",
"65",
"51",
"66",
"85",
"65",
"65",
"70",
"60",
"66",
"76",
"69",
"68",
"70",
"80",
"77",
"81",
"56",
"83",
"87",
"84",
"84",
"96",
"82",
"82",
"104",
"97",
"88",
"120",
"103",
"117",
"142",
"143",
"153",
"220",
"315",
"468",
"811",
"1294",
"2163",
"3280",
"5076",
"7178",
"9950",
"12686",
"16143",
"18348",
"20677",
"21681",
"22974",
"21193",
"20229",
"16901",
"14769",
"10981",
"8533",
"5852",
"4140",
"2624",
"1770",
"987",
"629",
"345",
"198",
"153",
"128",
"102",
"100",
"78",
"96",
"108",
"93",
"82",
"72",
"88",
"70",
"85",
"89",
"75",
"79",
"83",
"82",
"71",
"90",
"61",
"82",
"82",
"90",
"70",
"104",
"87",
"95",
"111",
"84",
"105",
"109",
"110",
"137",
"115",
"162",
"168",
"242",
"272",
"427",
"629",
"895",
"1174",
"1501",
"1926",
"2458",
"2746",
"3061",
"3107",
"3525",
"3053",
"2999",
"2640",
"2352",
"1871",
"1638",
"1201",
"925",
"691",
"536",
"391",
"304",
"221",
"179",
"132",
"119",
"82",
"81",
"62",
"54",
"47",
"49",
"42",
"53",
"60",
"57",
"63",
"47",
"47",
"42",
"58",
"45",
"45",
"50",
"47",
"41",
"53",
"48",
"44",
"52",
"41",
"32",
"53",
"45",
"44",
"43",
"52",
"53",
"55",
"44",
"48",
"54",
"52",
"48",
"40",
"49",
"43",
"47",
"42",
"40",
"57",
"53",
"44",
"49",
"53",
"38",
"49",
"56",
"48",
"41",
"39",
"41",
"49",
"48",
"35",
"50",
"47",
"42",
"52",
"35",
"35",
"49",
"37",
"35",
"52",
"56",
"30",
"55",
"39",
"32",
"42",
"41",
"30",
"43",
"60",
"32",
"43",
"45",
"41",
"51",
"36",
"49",
"49",
"53",
"41",
"41",
"41",
"40",
"28",
"27",
"44",
"44",
"27",
"47",
"28",
"42",
"49",
"39",
"36",
"31",
"40",
"32",
"53",
"35",
"42",
"39",
"39",
"39",
"30",
"40",
"39",
"44",
"40",
"44",
"29",
"37",
"30",
"31",
"45",
"30",
"29",
"39",
"35",
"27",
"52",
"41",
"32",
"39",
"30",
"37",
"32",
"30",
"40",
"30",
"37",
"40",
"36",
"41",
"40",
"41",
"51",
"27",
"41",
"32",
"25",
"29",
"22",
"34",
"36",
"30",
"41",
"40",
"36",
"40",
"24",
"45",
"32",
"38",
"27",
"37",
"38",
"35",
"27",
"35",
"40",
"36",
"31",
"32",
"36",
"37",
"28",
"40",
"31",
"43",
"25",
"29",
"45",
"39",
"32",
"41",
"32",
"34",
"30",
"32",
"43",
"38",
"28",
"36",
"36",
"28",
"38",
"29",
"34",
"26",
"29",
"42",
"35",
"38",
"26",
"27",
"23",
"32",
"27",
"27",
"39",
"32",
"36",
"35",
"37",
"28",
"40",
"39",
"36",
"41",
"37",
"40",
"36",
"27",
"30",
"35",
"38",
"28",
"42",
"29",
"37",
"40",
"30",
"34",
"27",
"25",
"30",
"28",
"39",
"37",
"32",
"47",
"28",
"22",
"21",
"36",
"35",
"47",
"36",
"22",
"41",
"50",
"31",
"38",
"27",
"29",
"39",
"43",
"37",
"29",
"34",
"30",
"43",
"30",
"44",
"32",
"36",
"30",
"35",
"37",
"34",
"48",
"34",
"54",
"37",
"40",
"40",
"42",
"37",
"43",
"41",
"56",
"37",
"44",
"49",
"42",
"44",
"38",
"32",
"53",
"57",
"71",
"42",
"43",
"58",
"63",
"60",
"81",
"76",
"64",
"94",
"116",
"108",
"116",
"96",
"135",
"120",
"133",
"131",
"142",
"172",
"173",
"160",
"212",
"197",
"226",
"214",
"239",
"211",
"259",
"224",
"247",
"230",
"212",
"199",
"187",
"219",
"195",
"154",
"195",
"196",
"153",
"145",
"150",
"147",
"119",
"91",
"121",
"98",
"93",
"84",
"78",
"61",
"71",
"66",
"56",
"52",
"57",
"58",
"66",
"55",
"50",
"51",
"47",
"61",
"66",
"78",
"87",
"65",
"93",
"81",
"117",
"104",
"127",
"122",
"120",
"142",
"108",
"108",
"106",
"77",
"91",
"69",
"71",
"61",
"52",
"44",
"52",
"38",
"35",
"28",
"27",
"23",
"23",
"29",
"17539",
"Channel_info_start",
"Channel : Mg",
"Points : 0",
"Range : 0.000000 - 0.000000",
"Step : 0.010000",
"Channel_info_end",
"Channel_info_start",
"Channel : Al",
"Points : 0",
"Range : 0.000000 - 0.000000",
"Step : 0.010000",
"Channel_info_end",
"Channel_info_start",
"Channel : Si",
"Points : 0",
"Range : 0.000000 - 0.000000",
"Step : 0.010000",
"Channel_info_end",
"Channel_info_start",
"Channel : P ",
"Points : 0",
"Range : 0.000000 - 0.000000",
"Step : 0.010000",
"Channel_info_end",
"Channel_info_start",
"Channel : S ",
"Points : 0",
"Range : 0.000000 - 0.000000",
"Step : 0.010000",
"Channel_info_end",
"Channel_info_start",
"Channel : Cl",
"Points : 0",
"Range : 0.000000 - 0.000000",
"Step : 0.010000",
"Channel_info_end",
"Channel_info_start",
"Channel : K ",
"Points : 0",
"Range : 0.000000 - 0.000000",
"Step : 0.010000",
"Channel_info_end",
"Channel_info_start",
"Channel : Ca",
"Points : 0",
"Range : 0.000000 - 0.000000",
"Step : 0.010000",
"Channel_info_end",
"Channel_info_start",
"Channel : Ti",
"Points : 0",
"Range : 0.000000 - 0.000000",
"Step : 0.010000",
"Channel_info_end",
"Channel_info_start",
"Channel : V ",
"Points : 0",
"Range : 0.000000 - 0.000000",
"Step : 0.010000",
"Channel_info_end",
"Channel_info_start",
"Channel : Cr",
"Points : 0",
"Range : 0.000000 - 0.000000",
"Step : 0.010000",
"Channel_info_end",
"Channel_info_start",
"Channel : Mn",
"Points : 0",
"Range : 0.000000 - 0.000000",
"Step : 0.010000",
"Channel_info_end",
"Channel_info_start",
"Channel : Fe",
"Points : 0",
"Range : 0.000000 - 0.000000",
"Step : 0.010000",
"Channel_info_end",
"Channel_info_start",
"Channel : Cu",
"Points : 0",
"Range : 0.000000 - 0.000000",
"Step : 0.010000",
"Channel_info_end",
"Channel_info_start",
"Channel : Zn",
"Points : 0",
"Range : 0.000000 - 0.000000",
"Step : 0.010000",
"Channel_info_end",
"Channel_info_start",
"Channel : Sr",
"Points : 0",
"Range : 0.000000 - 0.000000",
"Step : 0.010000",
"Channel_info_end",
"Channel_info_start",
"Channel : Pb",
"Points : 0",
"Range : 0.000000 - 0.000000",
"Step : 0.010000",
"Channel_info_end",
"",
"Qualitative Result",
"--------------------------------------------------------------------------------",
"Element :  Mg, Se, P , Ca, Rh",
"",
"Peak List",
"--------------------------------------------------------------------------------",
"Channel               Line        keV     Net Int.(cps/uA)",
"--------------------------------------------------------------------------------",
"Na                    MgKa         1.20     0.016",
"                      SeLa         1.40     0.540",
"                      P Ka         1.98     0.020",
"                      CaKa         3.70     0.301",
"                      CaKb         4.00     0.036",
"                      SeKa        11.20    15.963",
"                      SeKb        12.48     2.486",
"                      RhKaC       19.20     0.138",
"                      RhKa        20.09     0.084",
"--------------------------------------------------------------------------------",
"",
"Quantitative Result",
"--------------------------------------------------------------------------------",
"Analyte               Result             Std.Dev. Proc.-Calc. Line Intensity(cps/uA)",
"--------------------------------------------------------------------------------",
"====[No. 1 Layer]====< Layer1               >===============================",
"Layer1                   5.180 ug/cm2    -------- Flux       -------- --------",
"Mg                       5.180 ug/cm2    -------- ********** -------- --------",