File: inputs/edxCalibration/edx_raw/2010-06/Cu 31521.20100525220957.csv
"Sample    : Cu 31521",
"Operator  : luisf",
"Comment  : cubatao-g-policarbonato",
"Group     : kerr2007ag180cal_lt",
"Date       : 2010-05-25 22:05:54",
"",
"Mesurement Condition",
"------------------------------------------------------------------------------------",
"Instrument : 700HS2   Atmosphere : Vac.   Collimator : 10(mm)   Spin : No",
"------------------------------------------------------------------------------------",
"Analyte               TG kV   uA      FI Acq.(keV)  Anal.(keV)  Time(sec)     DT(%)",
"------------------------------------------------------------------------------------",
"Na                    Rh 50  152-Auto Al  0 - 20    0.8 - 1.2   Live -  179   15",
"",
"<Profile>",
"Channel_info_start",
"Channel : Na",
"Points : 2048",
"Range : 0.000000 - 20.48",
"Step : 0.010000",
"Channel_info_end",
"0",
"0",
"0",
"0",
"0",
"0",
"0",
"0",
"0",
"0",
"0",
"0",
"0",
"0",
"0",
"5",
"17",
"12",
"14",
"17",
"12",
"14",
"15",
"9",
"10",
"12",
"8",
"13",
"10",
"11",
"10",
"15",
"9",
"7",
"9",
"12",
"15",
"13",
"18",
"21",
"25",
"32",
"37",
"64",
"113",
"145",
"205",
"252",
"251",
"189",
"137",
"85",
"57",
"34",
"32",
"14",
"13",
"13",
"9",
"7",
"7",
"10",
"10",
"8",
"7",
"5",
"13",
"5",
"5",
"18",
"4",
"9",
"18",
"12",
"11",
"9",
"15",
"8",
"16",
"5",
"11",
"12",
"9",
"5",
"12",
"12",
"13",
"20",
"14",
"13",
"12",
"17",
"16",
"9",
"10",
"17",
"28",
"23",
"39",
"35",
"61",
"62",
"40",
"41",
"26",
"25",
"12",
"16",
"3",
"12",
"4",
"13",
"9",
"11",
"17",
"18",
"23",
"18",
"10",
"18",
"8",
"9",
"8",
"13",
"14",
"11",
"10",
"11",
"7",
"14",
"10",
"9",
"8",
"17",
"7",
"14",
"15",
"15",
"10",
"11",
"15",
"14",
"9",
"15",
"9",
"16",
"7",
"9",
"7",
"12",
"13",
"10",
"8",
"8",
"13",
"4",
"8",
"12",
"13",
"9",
"15",
"5",
"11",
"13",
"15",
"13",
"9",
"8",
"12",
"9",
"17",
"14",
"10",
"14",
"14",
"15",
"18",
"35",
"51",
"99",
"142",
"263",
"358",
"495",
"578",
"589",
"558",
"379",
"271",
"188",
"96",
"60",
"50",
"26",
"40",
"33",
"47",
"45",
"63",
"98",
"67",
"68",
"87",
"67",
"55",
"51",
"26",
"27",
"21",
"13",
"13",
"22",
"11",
"28",
"22",
"23",
"28",
"22",
"30",
"27",
"28",
"33",
"29",
"23",
"29",
"34",
"24",
"33",
"28",
"28",
"36",
"17",
"25",
"41",
"36",
"42",
"33",
"27",
"18",
"18",
"35",
"14",
"18",
"18",
"29",
"25",
"30",
"21",
"24",
"24",
"21",
"25",
"33",
"24",
"25",
"17",
"21",
"21",
"27",
"22",
"25",
"21",
"25",
"17",
"34",
"34",
"21",
"32",
"34",
"30",
"32",
"23",
"37",
"23",
"32",
"35",
"24",
"22",
"28",
"37",
"28",
"27",
"33",
"36",
"38",
"27",
"29",
"37",
"35",
"41",
"45",
"29",
"41",
"47",
"49",
"57",
"62",
"43",
"58",
"55",
"53",
"61",
"52",
"70",
"47",
"63",
"61",
"58",
"64",
"70",
"77",
"100",
"92",
"117",
"126",
"134",
"129",
"117",
"114",
"84",
"86",
"68",
"72",
"63",
"73",
"66",
"55",
"42",
"75",
"71",
"73",
"65",
"60",
"65",
"57",
"60",
"62",
"70",
"62",
"67",
"46",
"58",
"65",
"75",
"77",
"66",
"73",
"76",
"91",
"83",
"104",
"66",
"95",
"86",
"85",
"91",
"101",
"77",
"75",
"93",
"82",
"83",
"79",
"79",
"98",
"73",
"82",
"76",
"64",
"93",
"91",
"90",
"83",
"70",
"93",
"86",
"88",
"93",
"89",
"102",
"101",
"108",
"120",
"100",
"163",
"136",
"170",
"160",
"190",
"225",
"352",
"605",
"1077",
"1986",
"3552",
"5789",
"9338",
"13264",
"18662",
"22820",
"27777",
"29418",
"30561",
"28412",
"25793",
"20311",
"15965",
"11137",
"7387",
"4513",
"2556",
"1427",
"787",
"358",
"217",
"160",
"145",
"101",
"115",
"89",
"93",
"90",
"88",
"103",
"108",
"122",
"99",
"129",
"133",
"157",
"174",
"162",
"191",
"236",
"248",
"329",
"504",
"623",
"896",
"1353",
"1969",
"2524",
"3198",
"3435",
"3956",
"3809",
"3773",
"3379",
"2954",
"2184",
"1665",
"1191",
"829",
"471",
"335",
"197",
"135",
"88",
"92",
"68",
"64",
"47",
"60",
"48",
"50",
"59",
"59",
"58",
"71",
"55",
"61",
"59",
"57",
"61",
"57",
"58",
"65",
"64",
"70",
"72",
"65",
"43",
"61",
"51",
"62",
"48",
"39",
"51",
"59",
"64",
"64",
"61",
"54",
"50",
"59",
"62",
"48",
"52",
"48",
"51",
"51",
"54",
"54",
"43",
"46",
"45",
"58",
"54",
"45",
"48",
"46",
"48",
"43",
"54",
"51",
"50",
"50",
"34",
"51",
"50",
"43",
"41",
"57",
"57",
"46",
"41",
"48",
"47",
"36",
"51",
"58",
"62",
"54",
"48",
"49",
"57",
"54",
"71",
"45",
"48",
"49",
"42",
"50",
"54",
"61",
"51",
"47",
"43",
"34",
"50",
"42",
"38",
"46",
"50",
"53",
"43",
"49",
"49",
"39",
"45",
"54",
"40",
"54",
"48",
"51",
"41",
"43",
"41",
"53",
"61",
"50",
"46",
"51",
"54",
"64",
"43",
"61",
"34",
"48",
"38",
"39",
"37",
"52",
"45",
"52",
"34",
"43",
"45",
"49",
"42",
"45",
"41",
"49",
"48",
"40",
"33",
"41",
"36",
"47",
"52",
"40",
"40",
"47",
"45",
"42",
"49",
"40",
"46",
"35",
"62",
"49",
"47",
"35",
"39",
"43",
"40",
"39",
"29",
"58",
"48",
"48",
"53",
"51",
"40",
"35",
"50",
"39",
"40",
"39",
"26",
"40",
"43",
"36",
"45",
"51",
"52",
"57",
"38",
"50",
"50",
"51",
"34",
"46",
"45",
"50",
"35",
"65",
"49",
"48",
"47",
"42",
"49",
"54",
"30",
"46",
"42",
"53",
"53",
"48",
"46",
"39",
"29",
"58",
"33",
"34",
"47",
"39",
"52",
"48",
"41",
"41",
"50",
"39",
"32",
"40",
"39",
"46",
"46",
"35",
"47",
"38",
"33",
"45",
"39",
"37",
"43",
"37",
"43",
"53",
"53",
"45",
"42",
"49",
"40",
"35",
"35",
"43",
"47",
"34",
"34",
"41",
"37",
"40",
"46",
"53",
"37",
"50",
"42",
"41",
"49",
"35",
"41",
"41",
"37",
"39",
"49",
"37",
"36",
"47",
"40",
"48",
"40",
"27",
"36",
"38",
"49",
"38",
"47",
"42",
"34",
"32",
"38",
"38",
"36",
"27",
"35",
"40",
"36",
"43",
"39",
"38",
"40",
"48",
"30",
"33",
"38",
"33",
"50",
"34",
"33",
"37",
"38",
"23",
"43",
"39",
"39",
"43",
"35",
"24",
"34",
"32",
"35",
"40",
"28",
"38",
"42",
"38",
"42",
"35",
"33",
"46",
"21",
"49",
"38",
"34",
"29",
"33",
"39",
"43",
"43",
"41",
"29",
"30",
"30",
"39",
"38",
"41",
"27",
"38",
"43",
"30",
"36",
"35",
"49",
"38",
"47",
"55",
"54",
"58",
"77",
"77",
"67",
"91",
"82",
"65",
"67",
"71",
"75",
"55",
"51",
"65",
"47",
"57",
"47",
"41",
"30",
"32",
"35",
"28",
"35",
"34",
"41",
"28",
"35",
"34",
"40",
"35",
"34",
"34",
"34",
"25",
"30",
"36",
"29",
"25",
"27",
"26",
"30",
"45",
"36",
"36",
"40",
"39",
"32",
"42",
"50",
"53",
"46",
"51",
"40",
"36",
"39",
"34",
"41",
"48",
"33",
"39",
"33",
"39",
"33",
"53",
"35",
"53",
"27",
"60",
"36",
"60",
"52",
"60",
"66",
"66",
"60",
"54",
"55",
"47",
"60",
"62",
"46",
"51",
"41",
"40",
"33",
"38",
"36",
"50",
"33",
"34",
"39",
"23",
"37",
"33",
"26",
"58",
"32",
"26",
"37",
"40",
"23",
"36",
"40",
"38",
"36",
"41",
"35",
"30",
"35",
"48",
"42",
"34",
"32",
"33",
"38",
"29",
"33",
"36",
"41",
"37",
"40",
"33",
"41",
"39",
"34",
"49",
"36",
"40",
"38",
"53",
"46",
"66",
"53",
"36",
"58",
"50",
"63",
"59",
"57",
"51",
"76",
"89",
"86",
"85",
"88",
"89",
"99",
"130",
"128",
"139",
"148",
"176",
"187",
"171",
"187",
"173",
"172",
"226",
"202",
"215",
"186",
"230",
"207",
"241",
"191",
"203",
"201",
"184",
"193",
"204",
"168",
"164",
"141",
"147",
"163",
"143",
"115",
"129",
"99",
"116",
"101",
"77",
"72",
"93",
"72",
"73",
"76",
"51",
"61",
"58",
"58",
"59",
"53",
"58",
"51",
"55",
"62",
"60",
"77",
"79",
"72",
"83",
"90",
"109",
"113",
"128",
"121",
"93",
"95",
"105",
"97",
"104",
"99",
"80",
"70",
"53",
"38",
"46",
"46",
"37",
"37",
"28",
"38",
"26",
"27",
"36",
"24",
"15573",
"Channel_info_start",
"Channel : Mg",
"Points : 0",
"Range : 0.000000 - 0.000000",
"Step : 0.010000",
"Channel_info_end",
"Channel_info_start",
"Channel : Al",
"Points : 0",
"Range : 0.000000 - 0.000000",
"Step : 0.010000",
"Channel_info_end",
"Channel_info_start",
"Channel : Si",
"Points : 0",
"Range : 0.000000 - 0.000000",
"Step : 0.010000",
"Channel_info_end",
"Channel_info_start",
"Channel : P ",
"Points : 0",
"Range : 0.000000 - 0.000000",
"Step : 0.010000",
"Channel_info_end",
"Channel_info_start",
"Channel : S ",
"Points : 0",
"Range : 0.000000 - 0.000000",
"Step : 0.010000",
"Channel_info_end",
"Channel_info_start",
"Channel : Cl",
"Points : 0",
"Range : 0.000000 - 0.000000",
"Step : 0.010000",
"Channel_info_end",
"Channel_info_start",
"Channel : K ",
"Points : 0",
"Range : 0.000000 - 0.000000",
"Step : 0.010000",
"Channel_info_end",
"Channel_info_start",
"Channel : Ca",
"Points : 0",
"Range : 0.000000 - 0.000000",
"Step : 0.010000",
"Channel_info_end",
"Channel_info_start",
"Channel : Ti",
"Points : 0",
"Range : 0.000000 - 0.000000",
"Step : 0.010000",
"Channel_info_end",
"Channel_info_start",
"Channel : V ",
"Points : 0",
"Range : 0.000000 - 0.000000",
"Step : 0.010000",
"Channel_info_end",
"Channel_info_start",
"Channel : Cr",
"Points : 0",
"Range : 0.000000 - 0.000000",
"Step : 0.010000",
"Channel_info_end",
"Channel_info_start",
"Channel : Mn",
"Points : 0",
"Range : 0.000000 - 0.000000",
"Step : 0.010000",
"Channel_info_end",
"Channel_info_start",
"Channel : Fe",
"Points : 0",
"Range : 0.000000 - 0.000000",
"Step : 0.010000",
"Channel_info_end",
"Channel_info_start",
"Channel : Cu",
"Points : 0",
"Range : 0.000000 - 0.000000",
"Step : 0.010000",
"Channel_info_end",
"Channel_info_start",
"Channel : Zn",
"Points : 0",
"Range : 0.000000 - 0.000000",
"Step : 0.010000",
"Channel_info_end",
"Channel_info_start",
"Channel : Sr",
"Points : 0",
"Range : 0.000000 - 0.000000",
"Step : 0.010000",
"Channel_info_end",
"Channel_info_start",
"Channel : Pb",
"Points : 0",
"Range : 0.000000 - 0.000000",
"Step : 0.010000",
"Channel_info_end",
"",
"Qualitative Result",
"--------------------------------------------------------------------------------",
"Element :  Cu, P , Ca, Ru",
"",
"Peak List",
"--------------------------------------------------------------------------------",
"Channel               Line        keV     Net Int.(cps/uA)",
"--------------------------------------------------------------------------------",
"Na                    CuLa         0.95     0.089",
"                      P Ka         2.02     0.020",
"                      CaKa         3.68     0.302",
"                      CaKb         4.02     0.032",
"                      CuKaESC      6.31     0.048",
"                      CuKa         8.04    19.516",
"                      CuKb         8.89     2.547",
"                      CuKaSUM     16.04     0.044",
"                      ----        19.09     0.132",
"                      RuKa        19.32     0.101",
"--------------------------------------------------------------------------------",
"",
"Quantitative Result",
"--------------------------------------------------------------------------------",
"Analyte               Result             Std.Dev. Proc.-Calc. Line Intensity(cps/uA)",
"--------------------------------------------------------------------------------",
"====[No. 1 Layer]====< Layer1               >===============================",
"Layer1                   0.000 ug/cm2    -------- Flux       -------- --------",