File: inputs/edxCalibration/edx_raw/2010-06/DyF3 31517.20100611035532.csv
"Sample    : DyF3 31517",
"Operator  : Luís",
"Comment  : cubatao-g-policarbonato",
"Group     : kerr2007ag180cal_lt",
"Date       : 2010-06-11 03:49:34",
"",
"Mesurement Condition",
"------------------------------------------------------------------------------------",
"Instrument : 700HS2   Atmosphere : Vac.   Collimator : 10(mm)   Spin : No",
"------------------------------------------------------------------------------------",
"Analyte               TG kV   uA      FI Acq.(keV)  Anal.(keV)  Time(sec)     DT(%)",
"------------------------------------------------------------------------------------",
"Na                    Rh 50  268-Auto Al  0 - 20    0.8 - 1.2   Live -  179   14",
"",
"<Profile>",
"Channel_info_start",
"Channel : Na",
"Points : 2048",
"Range : 0.000000 - 20.48",
"Step : 0.010000",
"Channel_info_end",
"0",
"0",
"0",
"0",
"0",
"0",
"0",
"0",
"0",
"0",
"0",
"0",
"0",
"0",
"0",
"8",
"21",
"18",
"14",
"15",
"13",
"7",
"12",
"18",
"8",
"18",
"12",
"24",
"25",
"17",
"10",
"15",
"13",
"24",
"22",
"15",
"25",
"22",
"21",
"12",
"20",
"15",
"17",
"13",
"26",
"27",
"28",
"55",
"68",
"89",
"112",
"92",
"87",
"81",
"62",
"50",
"39",
"31",
"42",
"55",
"105",
"168",
"323",
"476",
"738",
"1023",
"1104",
"1080",
"893",
"616",
"420",
"253",
"141",
"123",
"104",
"115",
"119",
"133",
"113",
"80",
"70",
"73",
"80",
"83",
"118",
"97",
"84",
"81",
"75",
"37",
"43",
"46",
"33",
"26",
"36",
"40",
"45",
"49",
"55",
"84",
"81",
"102",
"81",
"72",
"41",
"36",
"20",
"22",
"18",
"21",
"11",
"14",
"5",
"22",
"18",
"21",
"16",
"16",
"13",
"13",
"14",
"12",
"20",
"8",
"12",
"23",
"10",
"14",
"11",
"18",
"24",
"17",
"16",
"22",
"22",
"24",
"28",
"16",
"15",
"22",
"22",
"16",
"29",
"21",
"27",
"15",
"22",
"16",
"20",
"25",
"20",
"21",
"14",
"17",
"22",
"25",
"22",
"26",
"16",
"26",
"20",
"20",
"22",
"34",
"15",
"27",
"24",
"25",
"16",
"25",
"21",
"20",
"26",
"27",
"23",
"36",
"36",
"59",
"102",
"147",
"313",
"453",
"684",
"855",
"1000",
"950",
"906",
"673",
"470",
"253",
"179",
"96",
"64",
"60",
"58",
"63",
"96",
"83",
"119",
"147",
"154",
"151",
"146",
"128",
"81",
"60",
"66",
"35",
"41",
"35",
"43",
"21",
"49",
"51",
"47",
"49",
"53",
"43",
"46",
"43",
"64",
"50",
"72",
"62",
"56",
"61",
"61",
"67",
"87",
"60",
"78",
"87",
"76",
"85",
"109",
"92",
"104",
"114",
"117",
"110",
"89",
"88",
"70",
"74",
"62",
"59",
"49",
"50",
"45",
"59",
"54",
"70",
"61",
"53",
"55",
"49",
"58",
"56",
"66",
"52",
"58",
"64",
"68",
"52",
"65",
"52",
"70",
"86",
"88",
"76",
"56",
"91",
"97",
"108",
"104",
"111",
"112",
"99",
"110",
"113",
"152",
"226",
"290",
"353",
"502",
"582",
"667",
"711",
"659",
"608",
"566",
"403",
"314",
"228",
"192",
"137",
"138",
"131",
"129",
"137",
"106",
"129",
"115",
"117",
"113",
"171",
"135",
"153",
"186",
"141",
"173",
"157",
"193",
"232",
"405",
"512",
"1006",
"1641",
"2799",
"4451",
"6653",
"9060",
"11421",
"13200",
"14513",
"13889",
"12817",
"10457",
"7962",
"5708",
"3759",
"2205",
"1360",
"755",
"428",
"294",
"231",
"184",
"166",
"186",
"151",
"163",
"188",
"155",
"179",
"168",
"188",
"182",
"198",
"193",
"250",
"254",
"423",
"559",
"990",
"1454",
"2336",
"3436",
"4589",
"5945",
"7126",
"7872",
"8605",
"8041",
"7714",
"6457",
"5471",
"4344",
"3647",
"2683",
"2138",
"1530",
"1290",
"1034",
"1003",
"915",
"1184",
"1413",
"1778",
"2003",
"2365",
"2454",
"2549",
"2131",
"2054",
"1486",
"1209",
"865",
"673",
"489",
"336",
"255",
"215",
"166",
"175",
"140",
"156",
"137",
"149",
"152",
"172",
"176",
"181",
"182",
"207",
"194",
"210",
"197",
"216",
"207",
"225",
"236",
"326",
"356",
"504",
"603",
"866",
"947",
"1181",
"1283",
"1358",
"1319",
"1200",
"1072",
"845",
"711",
"598",
"481",
"433",
"380",
"427",
"404",
"503",
"527",
"582",
"641",
"622",
"590",
"558",
"527",
"451",
"362",
"297",
"286",
"261",
"207",
"178",
"188",
"172",
"179",
"194",
"211",
"173",
"192",
"164",
"160",
"137",
"127",
"135",
"119",
"131",
"101",
"114",
"126",
"121",
"121",
"115",
"121",
"130",
"119",
"121",
"134",
"126",
"126",
"123",
"115",
"118",
"111",
"119",
"122",
"108",
"110",
"137",
"113",
"130",
"116",
"114",
"103",
"106",
"110",
"104",
"123",
"113",
"105",
"110",
"104",
"113",
"104",
"117",
"111",
"97",
"108",
"88",
"92",
"125",
"122",
"111",
"100",
"121",
"118",
"115",
"97",
"117",
"117",
"122",
"108",
"102",
"119",
"105",
"124",
"91",
"98",
"111",
"104",
"114",
"111",
"102",
"96",
"105",
"108",
"102",
"111",
"94",
"119",
"100",
"110",
"117",
"92",
"121",
"113",
"119",
"100",
"99",
"118",
"135",
"127",
"113",
"117",
"114",
"110",
"111",
"93",
"99",
"93",
"121",
"109",
"111",
"110",
"119",
"108",
"91",
"100",
"106",
"106",
"117",
"96",
"106",
"115",
"106",
"100",
"96",
"102",
"121",
"91",
"96",
"102",
"98",
"90",
"81",
"108",
"106",
"102",
"97",
"92",
"93",
"98",
"93",
"94",
"102",
"102",
"103",
"98",
"97",
"102",
"99",
"90",
"98",
"94",
"109",
"103",
"97",
"81",
"85",
"84",
"117",
"79",
"100",
"83",
"97",
"121",
"123",
"88",
"89",
"98",
"103",
"93",
"116",
"108",
"85",
"91",
"104",
"79",
"92",
"86",
"80",
"97",
"112",
"102",
"96",
"86",
"96",
"93",
"97",
"94",
"103",
"76",
"90",
"81",
"108",
"89",
"96",
"83",
"99",
"93",
"110",
"91",
"119",
"108",
"85",
"98",
"88",
"87",
"108",
"88",
"96",
"93",
"91",
"91",
"98",
"102",
"85",
"92",
"90",
"75",
"100",
"90",
"86",
"89",
"110",
"63",
"78",
"93",
"83",
"90",
"88",
"98",
"89",
"86",
"103",
"106",
"105",
"88",
"97",
"76",
"104",
"91",
"91",
"104",
"91",
"70",
"101",
"72",
"100",
"81",
"88",
"84",
"96",
"78",
"68",
"93",
"84",
"87",
"84",
"97",
"91",
"70",
"79",
"78",
"80",
"73",
"86",
"98",
"71",
"83",
"85",
"83",
"88",
"77",
"94",
"91",
"89",
"75",
"94",
"74",
"92",
"85",
"79",
"85",
"72",
"71",
"85",
"67",
"96",
"72",
"66",
"85",
"83",
"81",
"92",
"70",
"94",
"86",
"87",
"85",
"87",
"85",
"75",
"89",
"88",
"80",
"70",
"87",
"89",
"96",
"79",
"79",
"72",
"91",
"90",
"71",
"58",
"73",
"65",
"59",
"72",
"71",
"61",
"74",
"86",
"67",
"91",
"71",
"79",
"71",
"77",
"66",
"78",
"75",
"68",
"79",
"62",
"75",
"66",
"58",
"90",
"59",
"71",
"54",
"85",
"62",
"67",
"61",
"76",
"62",
"59",
"68",
"66",
"72",
"74",
"73",
"78",
"52",
"78",
"61",
"52",
"62",
"76",
"61",
"61",
"70",
"63",
"70",
"76",
"70",
"91",
"66",
"72",
"64",
"67",
"64",
"68",
"71",
"63",
"63",
"58",
"59",
"71",
"64",
"73",
"43",
"63",
"71",
"62",
"64",
"55",
"64",
"68",
"55",
"68",
"73",
"52",
"60",
"56",
"63",
"73",
"53",
"61",
"79",
"65",
"59",
"68",
"61",
"68",
"71",
"67",
"54",
"72",
"61",
"55",
"65",
"67",
"65",
"72",
"56",
"70",
"58",
"71",
"49",
"54",
"59",
"52",
"56",
"59",
"65",
"63",
"39",
"85",
"56",
"56",
"67",
"64",
"56",
"64",
"52",
"71",
"68",
"65",
"70",
"64",
"75",
"73",
"60",
"70",
"61",
"53",
"75",
"72",
"66",
"55",
"70",
"58",
"62",
"67",
"64",
"50",
"59",
"72",
"79",
"59",
"70",
"67",
"58",
"80",
"67",
"74",
"75",
"62",
"81",
"83",
"86",
"85",
"75",
"92",
"79",
"74",
"80",
"85",
"84",
"96",
"85",
"76",
"89",
"91",
"89",
"122",
"109",
"124",
"112",
"146",
"164",
"159",
"166",
"190",
"197",
"220",
"220",
"239",
"241",
"328",
"307",
"312",
"323",
"339",
"324",
"385",
"387",
"387",
"377",
"416",
"400",
"420",
"371",
"401",
"349",
"364",
"336",
"331",
"307",
"313",
"277",
"275",
"230",
"266",
"203",
"228",
"176",
"192",
"162",
"166",
"135",
"147",
"117",
"125",
"103",
"100",
"89",
"96",
"80",
"93",
"79",
"121",
"94",
"128",
"127",
"155",
"178",
"175",
"211",
"205",
"249",
"228",
"261",
"277",
"230",
"268",
"288",
"270",
"232",
"251",
"231",
"194",
"160",
"126",
"104",
"113",
"75",
"76",
"74",
"61",
"52",
"68",
"59",
"52",
"49",
"29077",
"Channel_info_start",
"Channel : Mg",
"Points : 0",
"Range : 0.000000 - 0.000000",
"Step : 0.010000",
"Channel_info_end",
"Channel_info_start",
"Channel : Al",
"Points : 0",
"Range : 0.000000 - 0.000000",
"Step : 0.010000",
"Channel_info_end",
"Channel_info_start",
"Channel : Si",
"Points : 0",
"Range : 0.000000 - 0.000000",
"Step : 0.010000",
"Channel_info_end",
"Channel_info_start",
"Channel : P ",
"Points : 0",
"Range : 0.000000 - 0.000000",
"Step : 0.010000",
"Channel_info_end",
"Channel_info_start",
"Channel : S ",
"Points : 0",
"Range : 0.000000 - 0.000000",
"Step : 0.010000",
"Channel_info_end",
"Channel_info_start",
"Channel : Cl",
"Points : 0",
"Range : 0.000000 - 0.000000",
"Step : 0.010000",
"Channel_info_end",
"Channel_info_start",
"Channel : K ",
"Points : 0",
"Range : 0.000000 - 0.000000",
"Step : 0.010000",
"Channel_info_end",
"Channel_info_start",
"Channel : Ca",
"Points : 0",
"Range : 0.000000 - 0.000000",
"Step : 0.010000",
"Channel_info_end",
"Channel_info_start",
"Channel : Ti",
"Points : 0",
"Range : 0.000000 - 0.000000",
"Step : 0.010000",
"Channel_info_end",
"Channel_info_start",
"Channel : V ",
"Points : 0",
"Range : 0.000000 - 0.000000",
"Step : 0.010000",
"Channel_info_end",
"Channel_info_start",
"Channel : Cr",
"Points : 0",
"Range : 0.000000 - 0.000000",
"Step : 0.010000",
"Channel_info_end",
"Channel_info_start",
"Channel : Mn",
"Points : 0",
"Range : 0.000000 - 0.000000",
"Step : 0.010000",
"Channel_info_end",
"Channel_info_start",
"Channel : Fe",
"Points : 0",
"Range : 0.000000 - 0.000000",
"Step : 0.010000",
"Channel_info_end",
"Channel_info_start",
"Channel : Cu",
"Points : 0",
"Range : 0.000000 - 0.000000",
"Step : 0.010000",
"Channel_info_end",
"Channel_info_start",
"Channel : Zn",
"Points : 0",
"Range : 0.000000 - 0.000000",
"Step : 0.010000",
"Channel_info_end",
"Channel_info_start",
"Channel : Sr",
"Points : 0",
"Range : 0.000000 - 0.000000",
"Step : 0.010000",
"Channel_info_end",
"Channel_info_start",
"Channel : Pb",
"Points : 0",
"Range : 0.000000 - 0.000000",
"Step : 0.010000",
"Channel_info_end",
"",
"Qualitative Result",
"--------------------------------------------------------------------------------",
"Element :  Na, Dy, Yb, Si, P , Ca, Ru",
"",
"Peak List",
"--------------------------------------------------------------------------------",
"Channel               Line        keV     Net Int.(cps/uA)",
"--------------------------------------------------------------------------------",
"Na                    NaKa         1.00     0.021",
"                      DyMa         1.32     0.261",
"                      YbMa         1.54     0.025",
"                      SiKa         1.69     0.018",
"                      P Ka         2.01     0.018",
"                      CaKa         3.68     0.290",
"                      CaKb         4.02     0.036",
"                      DyLaESC      4.74     0.022",
"                      DyLL         5.74     0.214",
"                      DyLa         6.48     4.871",
"                      DyLb1        7.24     2.947",
"                      DyLb2        7.63     0.789",
"                      DyLg1        8.40     0.341",
"                      YbLb1        8.40     0.095",
"                      DyLg2        8.70     0.165",
"                      RuKa        19.17     0.131",
"                      ----        19.48     0.057",
"                      ----        19.95     0.062",
"--------------------------------------------------------------------------------",
"",
"Quantitative Result",
"--------------------------------------------------------------------------------",
"Analyte               Result             Std.Dev. Proc.-Calc. Line Intensity(cps/uA)",
"--------------------------------------------------------------------------------",
"====[No. 1 Layer]====< Layer1               >===============================",
"Layer1                  20.248 ug/cm2    -------- Flux       -------- --------",
"Na                      20.248 ug/cm2    -------- ********** -------- --------",