File: inputs/edxCalibration/edx_raw/2010-06/DyF3 31517.20100526005522.csv
"Sample    : DyF3 31517",
"Operator  : luisf",
"Comment  : cubatao-g-policarbonato",
"Group     : kerr2007ag180cal_lt",
"Date       : 2010-05-26 00:51:18",
"",
"Mesurement Condition",
"------------------------------------------------------------------------------------",
"Instrument : 700HS2   Atmosphere : Vac.   Collimator : 10(mm)   Spin : No",
"------------------------------------------------------------------------------------",
"Analyte               TG kV   uA      FI Acq.(keV)  Anal.(keV)  Time(sec)     DT(%)",
"------------------------------------------------------------------------------------",
"Na                    Rh 50  268-Auto Al  0 - 20    0.8 - 1.2   Live -  180   15",
"",
"<Profile>",
"Channel_info_start",
"Channel : Na",
"Points : 2048",
"Range : 0.000000 - 20.48",
"Step : 0.010000",
"Channel_info_end",
"0",
"0",
"0",
"0",
"0",
"0",
"0",
"0",
"0",
"0",
"0",
"0",
"0",
"0",
"0",
"9",
"16",
"18",
"24",
"21",
"17",
"21",
"11",
"23",
"22",
"22",
"22",
"14",
"17",
"20",
"15",
"17",
"20",
"22",
"17",
"16",
"13",
"14",
"26",
"17",
"17",
"25",
"14",
"13",
"24",
"21",
"32",
"54",
"77",
"102",
"98",
"102",
"84",
"63",
"57",
"64",
"41",
"38",
"55",
"51",
"89",
"158",
"318",
"525",
"788",
"1076",
"1185",
"1162",
"912",
"686",
"413",
"290",
"141",
"117",
"134",
"115",
"156",
"114",
"108",
"89",
"61",
"65",
"66",
"73",
"94",
"88",
"89",
"96",
"67",
"44",
"45",
"26",
"30",
"37",
"26",
"33",
"47",
"48",
"57",
"83",
"98",
"96",
"75",
"69",
"38",
"26",
"23",
"21",
"20",
"24",
"21",
"22",
"12",
"16",
"20",
"17",
"17",
"14",
"13",
"18",
"24",
"17",
"16",
"14",
"12",
"8",
"24",
"15",
"20",
"11",
"20",
"20",
"21",
"23",
"23",
"22",
"24",
"23",
"24",
"23",
"22",
"25",
"29",
"22",
"22",
"20",
"17",
"21",
"15",
"15",
"15",
"14",
"26",
"21",
"17",
"21",
"20",
"20",
"11",
"17",
"20",
"17",
"21",
"24",
"10",
"21",
"15",
"23",
"18",
"17",
"20",
"26",
"29",
"24",
"36",
"30",
"41",
"67",
"103",
"168",
"292",
"459",
"646",
"816",
"1018",
"972",
"918",
"670",
"488",
"274",
"172",
"110",
"72",
"74",
"54",
"61",
"72",
"86",
"115",
"152",
"160",
"158",
"144",
"126",
"114",
"82",
"72",
"58",
"37",
"33",
"36",
"37",
"40",
"37",
"49",
"33",
"49",
"49",
"44",
"62",
"66",
"47",
"67",
"61",
"63",
"65",
"84",
"58",
"73",
"62",
"80",
"67",
"90",
"80",
"110",
"94",
"111",
"111",
"128",
"102",
"108",
"80",
"65",
"65",
"66",
"55",
"53",
"55",
"64",
"49",
"63",
"59",
"60",
"65",
"79",
"57",
"66",
"66",
"64",
"60",
"64",
"65",
"57",
"65",
"35",
"57",
"75",
"71",
"71",
"90",
"88",
"84",
"106",
"117",
"92",
"98",
"113",
"106",
"127",
"136",
"153",
"211",
"310",
"379",
"523",
"597",
"665",
"736",
"746",
"635",
"521",
"458",
"331",
"225",
"202",
"140",
"153",
"125",
"132",
"128",
"145",
"127",
"145",
"134",
"114",
"119",
"137",
"147",
"160",
"147",
"166",
"170",
"198",
"240",
"355",
"484",
"899",
"1539",
"2729",
"4211",
"6431",
"8736",
"11495",
"13472",
"14832",
"14266",
"13484",
"11016",
"8589",
"6168",
"4193",
"2529",
"1568",
"854",
"503",
"364",
"233",
"209",
"193",
"153",
"173",
"174",
"179",
"168",
"191",
"186",
"191",
"198",
"200",
"178",
"222",
"278",
"393",
"548",
"881",
"1411",
"2254",
"3304",
"4524",
"5776",
"7148",
"8017",
"8606",
"8406",
"7969",
"6676",
"6024",
"4662",
"3831",
"2779",
"2229",
"1692",
"1413",
"1094",
"978",
"1019",
"1080",
"1379",
"1744",
"2142",
"2372",
"2365",
"2421",
"2238",
"2115",
"1646",
"1347",
"942",
"686",
"499",
"354",
"240",
"231",
"166",
"157",
"158",
"152",
"168",
"184",
"168",
"161",
"187",
"176",
"176",
"185",
"188",
"226",
"179",
"235",
"208",
"220",
"234",
"334",
"343",
"446",
"644",
"755",
"988",
"1187",
"1238",
"1423",
"1322",
"1330",
"1148",
"953",
"806",
"665",
"532",
"445",
"368",
"405",
"406",
"508",
"566",
"593",
"646",
"664",
"627",
"586",
"563",
"455",
"356",
"324",
"277",
"238",
"200",
"187",
"187",
"206",
"181",
"198",
"201",
"210",
"171",
"187",
"159",
"156",
"136",
"127",
"121",
"110",
"109",
"117",
"114",
"145",
"135",
"132",
"110",
"144",
"131",
"120",
"138",
"122",
"123",
"129",
"120",
"139",
"123",
"121",
"115",
"104",
"115",
"117",
"125",
"121",
"119",
"117",
"126",
"113",
"106",
"127",
"103",
"111",
"132",
"117",
"106",
"138",
"106",
"116",
"98",
"106",
"106",
"103",
"92",
"136",
"99",
"132",
"110",
"113",
"132",
"123",
"123",
"108",
"119",
"87",
"95",
"116",
"123",
"113",
"114",
"121",
"133",
"108",
"104",
"103",
"123",
"99",
"116",
"116",
"122",
"121",
"100",
"103",
"110",
"101",
"120",
"91",
"109",
"99",
"85",
"133",
"89",
"124",
"128",
"97",
"121",
"121",
"124",
"113",
"112",
"116",
"96",
"140",
"101",
"108",
"106",
"111",
"127",
"109",
"108",
"115",
"109",
"88",
"95",
"97",
"107",
"110",
"98",
"107",
"86",
"106",
"99",
"91",
"111",
"106",
"111",
"111",
"95",
"109",
"112",
"94",
"119",
"109",
"107",
"114",
"98",
"84",
"106",
"84",
"110",
"102",
"98",
"113",
"89",
"114",
"88",
"120",
"100",
"104",
"79",
"97",
"72",
"84",
"113",
"91",
"80",
"95",
"92",
"108",
"94",
"82",
"94",
"107",
"96",
"90",
"111",
"104",
"94",
"106",
"91",
"95",
"75",
"102",
"85",
"83",
"112",
"109",
"76",
"102",
"94",
"110",
"100",
"87",
"88",
"78",
"85",
"87",
"96",
"106",
"101",
"98",
"103",
"98",
"91",
"94",
"86",
"106",
"101",
"91",
"104",
"85",
"123",
"100",
"106",
"107",
"99",
"109",
"82",
"101",
"107",
"88",
"85",
"99",
"92",
"91",
"92",
"87",
"94",
"108",
"97",
"83",
"99",
"101",
"85",
"80",
"103",
"86",
"101",
"102",
"90",
"98",
"100",
"95",
"91",
"108",
"99",
"91",
"91",
"99",
"96",
"107",
"103",
"95",
"78",
"73",
"78",
"112",
"89",
"95",
"86",
"99",
"87",
"99",
"94",
"102",
"82",
"99",
"73",
"90",
"96",
"86",
"110",
"75",
"83",
"82",
"84",
"100",
"99",
"69",
"77",
"88",
"78",
"94",
"80",
"83",
"59",
"79",
"70",
"85",
"85",
"70",
"90",
"90",
"92",
"80",
"89",
"88",
"75",
"76",
"96",
"86",
"90",
"89",
"79",
"106",
"96",
"88",
"82",
"75",
"69",
"58",
"90",
"57",
"69",
"109",
"75",
"71",
"79",
"82",
"66",
"73",
"84",
"60",
"87",
"83",
"75",
"77",
"69",
"92",
"75",
"70",
"62",
"78",
"84",
"87",
"85",
"83",
"61",
"58",
"67",
"66",
"72",
"84",
"84",
"65",
"62",
"69",
"58",
"71",
"78",
"76",
"70",
"72",
"67",
"66",
"63",
"57",
"60",
"64",
"55",
"60",
"64",
"63",
"74",
"66",
"61",
"74",
"62",
"70",
"75",
"87",
"67",
"60",
"61",
"79",
"61",
"72",
"77",
"71",
"60",
"59",
"62",
"70",
"75",
"59",
"65",
"75",
"63",
"59",
"57",
"58",
"84",
"64",
"72",
"69",
"65",
"66",
"59",
"58",
"67",
"80",
"64",
"63",
"76",
"85",
"64",
"71",
"50",
"70",
"74",
"57",
"62",
"59",
"61",
"64",
"47",
"64",
"49",
"62",
"58",
"69",
"59",
"77",
"55",
"64",
"75",
"57",
"67",
"59",
"60",
"65",
"73",
"64",
"64",
"72",
"55",
"84",
"53",
"58",
"58",
"69",
"57",
"54",
"72",
"67",
"53",
"74",
"66",
"63",
"66",
"57",
"54",
"63",
"44",
"65",
"63",
"64",
"72",
"65",
"64",
"63",
"66",
"67",
"60",
"69",
"66",
"72",
"73",
"59",
"70",
"64",
"72",
"78",
"75",
"67",
"58",
"89",
"65",
"73",
"59",
"90",
"73",
"73",
"96",
"77",
"69",
"90",
"83",
"84",
"78",
"99",
"94",
"111",
"98",
"123",
"120",
"128",
"107",
"154",
"165",
"198",
"168",
"183",
"196",
"215",
"220",
"233",
"262",
"295",
"289",
"315",
"294",
"356",
"375",
"374",
"362",
"419",
"375",
"389",
"407",
"438",
"368",
"445",
"383",
"373",
"377",
"367",
"325",
"346",
"318",
"284",
"267",
"281",
"248",
"228",
"200",
"196",
"172",
"150",
"144",
"172",
"126",
"135",
"107",
"101",
"92",
"102",
"102",
"102",
"108",
"108",
"104",
"145",
"131",
"148",
"146",
"173",
"220",
"205",
"203",
"240",
"261",
"292",
"285",
"289",
"262",
"283",
"248",
"259",
"210",
"219",
"141",
"168",
"149",
"114",
"108",
"94",
"76",
"72",
"75",
"76",
"58",
"57",
"66",
"29884",
"Channel_info_start",
"Channel : Mg",
"Points : 0",
"Range : 0.000000 - 0.000000",
"Step : 0.010000",
"Channel_info_end",
"Channel_info_start",
"Channel : Al",
"Points : 0",
"Range : 0.000000 - 0.000000",
"Step : 0.010000",
"Channel_info_end",
"Channel_info_start",
"Channel : Si",
"Points : 0",
"Range : 0.000000 - 0.000000",
"Step : 0.010000",
"Channel_info_end",
"Channel_info_start",
"Channel : P ",
"Points : 0",
"Range : 0.000000 - 0.000000",
"Step : 0.010000",
"Channel_info_end",
"Channel_info_start",
"Channel : S ",
"Points : 0",
"Range : 0.000000 - 0.000000",
"Step : 0.010000",
"Channel_info_end",
"Channel_info_start",
"Channel : Cl",
"Points : 0",
"Range : 0.000000 - 0.000000",
"Step : 0.010000",
"Channel_info_end",
"Channel_info_start",
"Channel : K ",
"Points : 0",
"Range : 0.000000 - 0.000000",
"Step : 0.010000",
"Channel_info_end",
"Channel_info_start",
"Channel : Ca",
"Points : 0",
"Range : 0.000000 - 0.000000",
"Step : 0.010000",
"Channel_info_end",
"Channel_info_start",
"Channel : Ti",
"Points : 0",
"Range : 0.000000 - 0.000000",
"Step : 0.010000",
"Channel_info_end",
"Channel_info_start",
"Channel : V ",
"Points : 0",
"Range : 0.000000 - 0.000000",
"Step : 0.010000",
"Channel_info_end",
"Channel_info_start",
"Channel : Cr",
"Points : 0",
"Range : 0.000000 - 0.000000",
"Step : 0.010000",
"Channel_info_end",
"Channel_info_start",
"Channel : Mn",
"Points : 0",
"Range : 0.000000 - 0.000000",
"Step : 0.010000",
"Channel_info_end",
"Channel_info_start",
"Channel : Fe",
"Points : 0",
"Range : 0.000000 - 0.000000",
"Step : 0.010000",
"Channel_info_end",
"Channel_info_start",
"Channel : Cu",
"Points : 0",
"Range : 0.000000 - 0.000000",
"Step : 0.010000",
"Channel_info_end",
"Channel_info_start",
"Channel : Zn",
"Points : 0",
"Range : 0.000000 - 0.000000",
"Step : 0.010000",
"Channel_info_end",
"Channel_info_start",
"Channel : Sr",
"Points : 0",
"Range : 0.000000 - 0.000000",
"Step : 0.010000",
"Channel_info_end",
"Channel_info_start",
"Channel : Pb",
"Points : 0",
"Range : 0.000000 - 0.000000",
"Step : 0.010000",
"Channel_info_end",
"",
"Qualitative Result",
"--------------------------------------------------------------------------------",
"Element :  Na, Dy, Yb, Si, P , Ca, Rh",
"",
"Peak List",
"--------------------------------------------------------------------------------",
"Channel               Line        keV     Net Int.(cps/uA)",
"--------------------------------------------------------------------------------",
"Na                    NaKa         1.01     0.019",
"                      DyMa         1.32     0.272",
"                      YbMa         1.55     0.020",
"                      SiKa         1.72     0.016",
"                      P Ka         2.00     0.019",
"                      CaKa         3.68     0.288",
"                      CaKb         4.01     0.037",
"                      DyLaESC      4.76     0.019",
"                      DyLL         5.75     0.220",
"                      DyLa         6.48     4.954",
"                      DyLb1        7.24     2.947",
"                      DyLb2        7.63     0.751",
"                      DyLg1        8.40     0.347",
"                      YbLb1        8.40     0.090",
"                      DyLg2        8.72     0.178",
"                      RhKaC       19.17     0.138",
"                      ----        19.45     0.060",
"                      RhKa        20.05     0.101",
"--------------------------------------------------------------------------------",
"",
"Quantitative Result",
"--------------------------------------------------------------------------------",
"Analyte               Result             Std.Dev. Proc.-Calc. Line Intensity(cps/uA)",
"--------------------------------------------------------------------------------",
"====[No. 1 Layer]====< Layer1               >===============================",
"Layer1                  18.054 ug/cm2    -------- Flux       -------- --------",
"Na                      18.054 ug/cm2    -------- ********** -------- --------",