File: inputs/edxCalibration/edx_raw/2010-06/Fe 31500.20100611005202.csv
"Sample    : Fe 31500",
"Operator  : thiago",
"Comment  : cubatao-g-policarbonato",
"Group     : kerr2007ag180cal_lt",
"Date       : 2010-06-11 00:47:57",
"",
"Mesurement Condition",
"------------------------------------------------------------------------------------",
"Instrument : 700HS2   Atmosphere : Vac.   Collimator : 10(mm)   Spin : No",
"------------------------------------------------------------------------------------",
"Analyte               TG kV   uA      FI Acq.(keV)  Anal.(keV)  Time(sec)     DT(%)",
"------------------------------------------------------------------------------------",
"Na                    Rh 50  187-Auto Al  0 - 20    0.8 - 1.2   Live -  180   16",
"",
"<Profile>",
"Channel_info_start",
"Channel : Na",
"Points : 2048",
"Range : 0.000000 - 20.48",
"Step : 0.010000",
"Channel_info_end",
"0",
"0",
"0",
"0",
"0",
"0",
"0",
"0",
"0",
"0",
"0",
"0",
"0",
"0",
"0",
"8",
"12",
"2",
"7",
"10",
"9",
"12",
"9",
"13",
"15",
"9",
"5",
"8",
"7",
"20",
"8",
"10",
"19",
"13",
"20",
"28",
"20",
"25",
"22",
"19",
"21",
"14",
"19",
"9",
"13",
"7",
"14",
"15",
"5",
"10",
"7",
"9",
"5",
"7",
"11",
"14",
"10",
"8",
"14",
"11",
"7",
"14",
"13",
"10",
"8",
"10",
"8",
"14",
"10",
"10",
"15",
"13",
"12",
"16",
"24",
"16",
"11",
"16",
"19",
"13",
"16",
"8",
"14",
"14",
"16",
"14",
"13",
"10",
"18",
"19",
"19",
"25",
"25",
"18",
"23",
"24",
"23",
"24",
"57",
"71",
"48",
"76",
"49",
"48",
"38",
"31",
"28",
"15",
"12",
"20",
"11",
"13",
"20",
"15",
"11",
"11",
"18",
"7",
"7",
"13",
"3",
"10",
"11",
"12",
"9",
"14",
"11",
"11",
"14",
"22",
"11",
"13",
"14",
"10",
"26",
"14",
"18",
"16",
"16",
"9",
"16",
"27",
"9",
"14",
"11",
"13",
"24",
"15",
"18",
"13",
"20",
"14",
"9",
"5",
"12",
"9",
"8",
"14",
"5",
"16",
"13",
"11",
"12",
"11",
"16",
"13",
"19",
"12",
"22",
"15",
"15",
"18",
"18",
"14",
"14",
"24",
"35",
"49",
"73",
"101",
"207",
"335",
"450",
"620",
"710",
"702",
"649",
"492",
"348",
"203",
"124",
"83",
"39",
"50",
"48",
"48",
"68",
"70",
"84",
"88",
"114",
"104",
"101",
"85",
"56",
"51",
"43",
"43",
"21",
"27",
"22",
"20",
"28",
"24",
"31",
"32",
"36",
"25",
"42",
"39",
"31",
"44",
"57",
"42",
"37",
"47",
"66",
"76",
"93",
"110",
"165",
"140",
"193",
"175",
"164",
"130",
"100",
"89",
"76",
"62",
"45",
"50",
"45",
"39",
"37",
"42",
"31",
"43",
"34",
"37",
"42",
"49",
"46",
"41",
"34",
"42",
"45",
"44",
"47",
"59",
"53",
"64",
"65",
"69",
"69",
"64",
"83",
"93",
"83",
"68",
"82",
"77",
"85",
"65",
"84",
"64",
"73",
"71",
"59",
"81",
"61",
"80",
"72",
"88",
"76",
"61",
"67",
"80",
"87",
"88",
"77",
"65",
"66",
"75",
"69",
"99",
"108",
"92",
"98",
"90",
"114",
"126",
"134",
"125",
"149",
"163",
"183",
"227",
"298",
"400",
"714",
"1350",
"2603",
"4799",
"8708",
"13626",
"20406",
"26334",
"32734",
"35610",
"36789",
"33688",
"28959",
"22323",
"15889",
"10049",
"6088",
"3371",
"1683",
"832",
"404",
"245",
"193",
"140",
"149",
"147",
"158",
"169",
"152",
"191",
"207",
"206",
"254",
"300",
"465",
"687",
"1124",
"1569",
"2443",
"2982",
"3788",
"4326",
"4888",
"4494",
"4336",
"3575",
"2822",
"1971",
"1385",
"853",
"492",
"305",
"175",
"102",
"83",
"65",
"68",
"59",
"72",
"59",
"55",
"71",
"64",
"70",
"69",
"82",
"58",
"70",
"65",
"67",
"64",
"72",
"56",
"67",
"54",
"58",
"57",
"64",
"56",
"62",
"66",
"73",
"67",
"66",
"70",
"56",
"80",
"64",
"80",
"76",
"67",
"71",
"81",
"67",
"75",
"64",
"64",
"61",
"59",
"64",
"64",
"68",
"48",
"76",
"62",
"73",
"73",
"60",
"66",
"66",
"62",
"69",
"64",
"72",
"81",
"60",
"80",
"85",
"96",
"92",
"94",
"103",
"108",
"101",
"90",
"108",
"89",
"64",
"55",
"72",
"77",
"71",
"55",
"67",
"68",
"68",
"53",
"75",
"60",
"61",
"55",
"66",
"61",
"57",
"54",
"72",
"57",
"56",
"62",
"72",
"55",
"68",
"57",
"60",
"71",
"80",
"65",
"49",
"51",
"58",
"64",
"70",
"50",
"68",
"67",
"64",
"66",
"62",
"69",
"75",
"80",
"54",
"57",
"67",
"69",
"56",
"62",
"82",
"46",
"68",
"68",
"66",
"60",
"65",
"84",
"70",
"67",
"69",
"70",
"76",
"80",
"69",
"69",
"68",
"65",
"71",
"77",
"76",
"71",
"81",
"49",
"76",
"55",
"68",
"58",
"79",
"87",
"72",
"57",
"70",
"67",
"56",
"59",
"83",
"47",
"64",
"60",
"66",
"47",
"46",
"58",
"75",
"71",
"66",
"68",
"58",
"45",
"70",
"72",
"55",
"58",
"43",
"58",
"58",
"62",
"44",
"61",
"43",
"62",
"76",
"67",
"61",
"56",
"57",
"62",
"51",
"59",
"65",
"56",
"55",
"66",
"58",
"50",
"71",
"60",
"61",
"65",
"51",
"77",
"41",
"53",
"69",
"72",
"58",
"68",
"55",
"64",
"58",
"43",
"54",
"61",
"64",
"67",
"61",
"66",
"48",
"51",
"60",
"64",
"57",
"50",
"67",
"57",
"49",
"56",
"62",
"51",
"47",
"54",
"61",
"64",
"68",
"70",
"75",
"54",
"56",
"56",
"50",
"55",
"38",
"39",
"43",
"57",
"55",
"67",
"48",
"54",
"38",
"60",
"61",
"69",
"49",
"50",
"56",
"49",
"54",
"55",
"57",
"56",
"47",
"58",
"58",
"90",
"81",
"75",
"94",
"100",
"82",
"98",
"96",
"126",
"118",
"100",
"106",
"98",
"90",
"75",
"72",
"65",
"82",
"64",
"64",
"55",
"57",
"49",
"36",
"67",
"60",
"56",
"46",
"54",
"54",
"50",
"49",
"54",
"56",
"58",
"60",
"68",
"56",
"69",
"71",
"61",
"60",
"72",
"57",
"59",
"38",
"56",
"56",
"73",
"57",
"67",
"48",
"49",
"44",
"41",
"57",
"58",
"39",
"55",
"57",
"61",
"55",
"48",
"54",
"59",
"45",
"43",
"56",
"57",
"45",
"56",
"53",
"59",
"54",
"54",
"53",
"49",
"65",
"54",
"53",
"49",
"45",
"43",
"46",
"44",
"50",
"39",
"46",
"59",
"49",
"28",
"42",
"50",
"49",
"41",
"51",
"38",
"42",
"51",
"39",
"53",
"47",
"42",
"59",
"56",
"47",
"35",
"38",
"50",
"38",
"51",
"53",
"35",
"50",
"55",
"53",
"48",
"47",
"44",
"32",
"44",
"41",
"42",
"39",
"49",
"58",
"53",
"46",
"55",
"42",
"49",
"39",
"51",
"48",
"36",
"34",
"53",
"32",
"46",
"35",
"48",
"44",
"30",
"35",
"49",
"50",
"39",
"36",
"55",
"37",
"48",
"44",
"36",
"53",
"47",
"42",
"36",
"38",
"43",
"32",
"36",
"33",
"43",
"34",
"42",
"36",
"45",
"42",
"38",
"37",
"67",
"44",
"39",
"53",
"39",
"39",
"45",
"42",
"56",
"43",
"50",
"44",
"48",
"44",
"43",
"33",
"42",
"41",
"37",
"44",
"48",
"38",
"28",
"30",
"46",
"32",
"55",
"42",
"47",
"46",
"48",
"35",
"49",
"39",
"32",
"36",
"39",
"46",
"44",
"28",
"42",
"43",
"49",
"32",
"46",
"53",
"38",
"46",
"43",
"39",
"49",
"45",
"44",
"35",
"48",
"44",
"35",
"49",
"50",
"57",
"56",
"38",
"41",
"41",
"36",
"49",
"43",
"46",
"35",
"44",
"36",
"30",
"38",
"38",
"44",
"50",
"38",
"37",
"51",
"51",
"48",
"36",
"49",
"37",
"49",
"41",
"45",
"46",
"33",
"42",
"42",
"38",
"43",
"42",
"48",
"33",
"32",
"37",
"50",
"37",
"39",
"43",
"42",
"35",
"32",
"41",
"37",
"38",
"47",
"56",
"62",
"51",
"56",
"48",
"46",
"44",
"47",
"59",
"30",
"37",
"55",
"46",
"64",
"44",
"55",
"62",
"56",
"67",
"73",
"56",
"68",
"64",
"73",
"65",
"101",
"92",
"108",
"105",
"117",
"102",
"115",
"133",
"146",
"169",
"165",
"164",
"206",
"195",
"254",
"188",
"209",
"267",
"266",
"286",
"241",
"231",
"305",
"273",
"301",
"243",
"298",
"239",
"285",
"250",
"283",
"204",
"219",
"191",
"198",
"162",
"164",
"138",
"133",
"126",
"129",
"111",
"112",
"112",
"107",
"88",
"88",
"71",
"69",
"68",
"79",
"73",
"51",
"66",
"87",
"59",
"82",
"82",
"96",
"90",
"100",
"101",
"103",
"119",
"140",
"148",
"129",
"134",
"135",
"112",
"128",
"138",
"124",
"111",
"94",
"93",
"82",
"54",
"55",
"50",
"45",
"44",
"39",
"46",
"48",
"35",
"36",
"44",
"18828",
"Channel_info_start",
"Channel : Mg",
"Points : 0",
"Range : 0.000000 - 0.000000",
"Step : 0.010000",
"Channel_info_end",
"Channel_info_start",
"Channel : Al",
"Points : 0",
"Range : 0.000000 - 0.000000",
"Step : 0.010000",
"Channel_info_end",
"Channel_info_start",
"Channel : Si",
"Points : 0",
"Range : 0.000000 - 0.000000",
"Step : 0.010000",
"Channel_info_end",
"Channel_info_start",
"Channel : P ",
"Points : 0",
"Range : 0.000000 - 0.000000",
"Step : 0.010000",
"Channel_info_end",
"Channel_info_start",
"Channel : S ",
"Points : 0",
"Range : 0.000000 - 0.000000",
"Step : 0.010000",
"Channel_info_end",
"Channel_info_start",
"Channel : Cl",
"Points : 0",
"Range : 0.000000 - 0.000000",
"Step : 0.010000",
"Channel_info_end",
"Channel_info_start",
"Channel : K ",
"Points : 0",
"Range : 0.000000 - 0.000000",
"Step : 0.010000",
"Channel_info_end",
"Channel_info_start",
"Channel : Ca",
"Points : 0",
"Range : 0.000000 - 0.000000",
"Step : 0.010000",
"Channel_info_end",
"Channel_info_start",
"Channel : Ti",
"Points : 0",
"Range : 0.000000 - 0.000000",
"Step : 0.010000",
"Channel_info_end",
"Channel_info_start",
"Channel : V ",
"Points : 0",
"Range : 0.000000 - 0.000000",
"Step : 0.010000",
"Channel_info_end",
"Channel_info_start",
"Channel : Cr",
"Points : 0",
"Range : 0.000000 - 0.000000",
"Step : 0.010000",
"Channel_info_end",
"Channel_info_start",
"Channel : Mn",
"Points : 0",
"Range : 0.000000 - 0.000000",
"Step : 0.010000",
"Channel_info_end",
"Channel_info_start",
"Channel : Fe",
"Points : 0",
"Range : 0.000000 - 0.000000",
"Step : 0.010000",
"Channel_info_end",
"Channel_info_start",
"Channel : Cu",
"Points : 0",
"Range : 0.000000 - 0.000000",
"Step : 0.010000",
"Channel_info_end",
"Channel_info_start",
"Channel : Zn",
"Points : 0",
"Range : 0.000000 - 0.000000",
"Step : 0.010000",
"Channel_info_end",
"Channel_info_start",
"Channel : Sr",
"Points : 0",
"Range : 0.000000 - 0.000000",
"Step : 0.010000",
"Channel_info_end",
"Channel_info_start",
"Channel : Pb",
"Points : 0",
"Range : 0.000000 - 0.000000",
"Step : 0.010000",
"Channel_info_end",
"",
"Qualitative Result",
"--------------------------------------------------------------------------------",
"Element :  P , Ca, Fe, Rh",
"",
"Peak List",
"--------------------------------------------------------------------------------",
"Channel               Line        keV     Net Int.(cps/uA)",
"--------------------------------------------------------------------------------",
"Na                    P Ka         1.98     0.021",
"                      CaKa         3.68     0.288",
"                      CaKb         4.00     0.039",
"                      FeKaESC      4.64     0.071",
"                      FeKa         6.40    18.197",
"                      FeKb         7.04     2.347",
"                      FeKaSUM     12.80     0.041",
"                      RhKaC       19.28     0.126",
"                      RhKa        20.05     0.052",
"--------------------------------------------------------------------------------",
"",
"Quantitative Result",
"--------------------------------------------------------------------------------",
"Analyte               Result             Std.Dev. Proc.-Calc. Line Intensity(cps/uA)",
"--------------------------------------------------------------------------------",
"====[No. 1 Layer]====< Layer1               >===============================",
"Layer1                   0.000 ug/cm2    -------- Flux       -------- --------",