File: inputs/edxCalibration/edx_raw/2010-06/GaP 15753.20100525202812.csv
"Sample    : GaP 15753",
"Operator  : thiago",
"Comment  : cubatao-g-policarbonato",
"Group     : kerr2007ag180cal_lt",
"Date       : 2010-05-25 20:24:00",
"",
"Mesurement Condition",
"------------------------------------------------------------------------------------",
"Instrument : 700HS2   Atmosphere : Vac.   Collimator : 10(mm)   Spin : No",
"------------------------------------------------------------------------------------",
"Analyte               TG kV   uA      FI Acq.(keV)  Anal.(keV)  Time(sec)     DT(%)",
"------------------------------------------------------------------------------------",
"Na                    Rh 50  393-Auto Al  0 - 20    0.8 - 1.2   Live -  179   15",
"",
"<Profile>",
"Channel_info_start",
"Channel : Na",
"Points : 2048",
"Range : 0.000000 - 20.48",
"Step : 0.010000",
"Channel_info_end",
"0",
"0",
"0",
"0",
"0",
"0",
"0",
"0",
"0",
"0",
"0",
"0",
"0",
"0",
"1",
"30",
"60",
"28",
"36",
"45",
"26",
"25",
"30",
"27",
"27",
"37",
"30",
"34",
"32",
"30",
"35",
"32",
"24",
"40",
"29",
"28",
"26",
"24",
"41",
"30",
"28",
"21",
"30",
"32",
"35",
"37",
"50",
"29",
"38",
"57",
"68",
"98",
"156",
"248",
"346",
"426",
"477",
"444",
"289",
"231",
"163",
"98",
"57",
"52",
"28",
"32",
"38",
"25",
"26",
"21",
"28",
"37",
"29",
"39",
"24",
"37",
"42",
"41",
"36",
"54",
"39",
"49",
"73",
"85",
"83",
"125",
"129",
"152",
"171",
"159",
"195",
"181",
"193",
"223",
"253",
"403",
"760",
"1361",
"2216",
"3025",
"3835",
"3720",
"3226",
"2304",
"1383",
"801",
"499",
"294",
"225",
"158",
"121",
"75",
"41",
"34",
"27",
"13",
"26",
"16",
"20",
"12",
"10",
"16",
"12",
"20",
"14",
"21",
"11",
"13",
"14",
"14",
"14",
"17",
"17",
"21",
"21",
"17",
"27",
"21",
"15",
"19",
"17",
"13",
"22",
"27",
"13",
"14",
"17",
"14",
"16",
"21",
"16",
"16",
"14",
"17",
"19",
"23",
"15",
"17",
"13",
"20",
"20",
"25",
"20",
"12",
"12",
"23",
"19",
"15",
"22",
"17",
"22",
"19",
"24",
"21",
"37",
"25",
"37",
"70",
"111",
"191",
"296",
"384",
"573",
"736",
"849",
"825",
"786",
"566",
"396",
"224",
"158",
"111",
"69",
"66",
"66",
"74",
"65",
"86",
"109",
"124",
"124",
"117",
"131",
"117",
"76",
"57",
"63",
"42",
"40",
"28",
"33",
"39",
"34",
"39",
"37",
"52",
"50",
"53",
"60",
"54",
"69",
"57",
"76",
"47",
"65",
"57",
"69",
"82",
"65",
"63",
"81",
"70",
"76",
"73",
"78",
"78",
"59",
"61",
"65",
"63",
"58",
"59",
"57",
"56",
"51",
"46",
"52",
"54",
"63",
"61",
"56",
"56",
"64",
"48",
"50",
"61",
"69",
"41",
"72",
"69",
"58",
"46",
"49",
"69",
"65",
"74",
"76",
"84",
"61",
"83",
"51",
"61",
"78",
"68",
"59",
"68",
"65",
"76",
"69",
"66",
"76",
"83",
"88",
"63",
"57",
"75",
"79",
"73",
"83",
"64",
"101",
"73",
"89",
"82",
"90",
"84",
"83",
"83",
"99",
"85",
"94",
"93",
"95",
"120",
"106",
"103",
"115",
"98",
"113",
"95",
"96",
"112",
"125",
"103",
"114",
"131",
"114",
"129",
"122",
"130",
"147",
"127",
"135",
"111",
"129",
"120",
"114",
"137",
"129",
"129",
"109",
"126",
"133",
"142",
"121",
"139",
"136",
"142",
"139",
"127",
"146",
"134",
"142",
"144",
"138",
"130",
"135",
"137",
"144",
"143",
"144",
"130",
"140",
"146",
"136",
"133",
"124",
"142",
"124",
"121",
"118",
"155",
"137",
"129",
"136",
"174",
"136",
"146",
"161",
"135",
"161",
"185",
"175",
"167",
"178",
"150",
"147",
"176",
"164",
"130",
"149",
"121",
"127",
"136",
"120",
"123",
"143",
"148",
"142",
"134",
"137",
"184",
"143",
"158",
"161",
"150",
"161",
"160",
"186",
"180",
"183",
"185",
"199",
"191",
"220",
"191",
"169",
"151",
"150",
"129",
"133",
"145",
"137",
"136",
"146",
"123",
"142",
"144",
"112",
"136",
"143",
"148",
"156",
"175",
"135",
"150",
"198",
"168",
"204",
"225",
"235",
"225",
"234",
"208",
"222",
"204",
"183",
"175",
"169",
"168",
"171",
"167",
"172",
"170",
"183",
"181",
"215",
"185",
"281",
"313",
"498",
"695",
"1240",
"2051",
"3357",
"4956",
"7586",
"10152",
"13645",
"15864",
"19022",
"19664",
"20646",
"19012",
"17914",
"14232",
"11480",
"8359",
"6058",
"3977",
"2642",
"1514",
"907",
"567",
"348",
"225",
"238",
"184",
"169",
"157",
"171",
"173",
"159",
"145",
"167",
"170",
"155",
"161",
"162",
"163",
"150",
"152",
"152",
"156",
"168",
"172",
"178",
"178",
"164",
"191",
"204",
"252",
"299",
"412",
"475",
"718",
"910",
"1285",
"1698",
"1978",
"2308",
"2629",
"2901",
"2703",
"2767",
"2358",
"2154",
"1680",
"1304",
"1058",
"732",
"521",
"403",
"313",
"229",
"183",
"140",
"145",
"146",
"111",
"124",
"122",
"138",
"125",
"134",
"135",
"137",
"106",
"112",
"118",
"127",
"105",
"115",
"136",
"113",
"130",
"123",
"119",
"129",
"118",
"124",
"133",
"123",
"114",
"127",
"110",
"117",
"130",
"123",
"118",
"148",
"96",
"132",
"127",
"131",
"122",
"111",
"109",
"108",
"112",
"140",
"109",
"115",
"124",
"124",
"118",
"110",
"109",
"129",
"118",
"102",
"115",
"119",
"109",
"107",
"111",
"139",
"106",
"119",
"105",
"119",
"117",
"111",
"117",
"120",
"106",
"135",
"107",
"133",
"97",
"108",
"133",
"125",
"122",
"125",
"117",
"101",
"106",
"119",
"117",
"108",
"98",
"121",
"97",
"112",
"114",
"111",
"109",
"125",
"103",
"95",
"105",
"109",
"102",
"122",
"127",
"120",
"98",
"97",
"106",
"89",
"106",
"122",
"108",
"105",
"105",
"133",
"110",
"102",
"102",
"115",
"89",
"134",
"107",
"98",
"114",
"137",
"98",
"117",
"115",
"101",
"118",
"120",
"96",
"103",
"118",
"114",
"121",
"101",
"108",
"99",
"103",
"110",
"109",
"105",
"113",
"86",
"125",
"125",
"83",
"105",
"112",
"86",
"106",
"90",
"78",
"100",
"110",
"122",
"85",
"90",
"121",
"94",
"73",
"111",
"110",
"108",
"85",
"117",
"107",
"87",
"100",
"101",
"111",
"126",
"98",
"114",
"77",
"94",
"108",
"100",
"120",
"81",
"96",
"89",
"100",
"114",
"84",
"106",
"82",
"94",
"103",
"83",
"99",
"101",
"90",
"96",
"96",
"101",
"100",
"82",
"91",
"83",
"81",
"89",
"78",
"98",
"111",
"97",
"93",
"106",
"96",
"93",
"96",
"93",
"87",
"68",
"94",
"112",
"78",
"88",
"97",
"101",
"76",
"90",
"89",
"93",
"90",
"97",
"97",
"90",
"75",
"85",
"100",
"88",
"100",
"94",
"94",
"100",
"84",
"83",
"84",
"102",
"79",
"93",
"74",
"86",
"83",
"90",
"60",
"83",
"72",
"93",
"82",
"82",
"86",
"83",
"108",
"87",
"96",
"69",
"62",
"87",
"75",
"93",
"100",
"97",
"87",
"81",
"84",
"63",
"87",
"111",
"86",
"89",
"86",
"74",
"71",
"81",
"73",
"74",
"84",
"89",
"93",
"78",
"86",
"82",
"82",
"81",
"77",
"84",
"97",
"88",
"77",
"96",
"86",
"74",
"70",
"81",
"74",
"85",
"78",
"90",
"81",
"83",
"84",
"76",
"87",
"81",
"74",
"59",
"72",
"74",
"81",
"64",
"90",
"63",
"70",
"85",
"83",
"75",
"66",
"94",
"81",
"79",
"84",
"82",
"89",
"93",
"68",
"76",
"72",
"71",
"65",
"77",
"86",
"72",
"88",
"81",
"66",
"96",
"70",
"54",
"88",
"83",
"72",
"73",
"69",
"89",
"74",
"89",
"78",
"77",
"53",
"75",
"64",
"66",
"82",
"90",
"88",
"82",
"72",
"82",
"77",
"65",
"82",
"84",
"78",
"70",
"88",
"91",
"84",
"96",
"74",
"85",
"86",
"96",
"76",
"98",
"69",
"93",
"85",
"85",
"74",
"97",
"85",
"86",
"68",
"76",
"81",
"105",
"105",
"108",
"91",
"90",
"97",
"108",
"84",
"81",
"103",
"124",
"113",
"125",
"127",
"149",
"125",
"143",
"135",
"163",
"133",
"155",
"132",
"154",
"148",
"174",
"156",
"160",
"176",
"209",
"192",
"207",
"225",
"273",
"289",
"287",
"330",
"329",
"375",
"389",
"408",
"414",
"450",
"474",
"487",
"528",
"492",
"528",
"572",
"586",
"509",
"573",
"516",
"563",
"523",
"499",
"494",
"518",
"482",
"430",
"394",
"408",
"344",
"357",
"317",
"317",
"274",
"278",
"249",
"215",
"196",
"187",
"176",
"172",
"156",
"142",
"125",
"142",
"109",
"122",
"110",
"124",
"125",
"135",
"124",
"126",
"125",
"148",
"163",
"198",
"220",
"219",
"220",
"261",
"225",
"221",
"231",
"249",
"220",
"230",
"181",
"200",
"162",
"139",
"119",
"129",
"114",
"107",
"81",
"71",
"84",
"89",
"62",
"85",
"81",
"37894",
"Channel_info_start",
"Channel : Mg",
"Points : 0",
"Range : 0.000000 - 0.000000",
"Step : 0.010000",
"Channel_info_end",
"Channel_info_start",
"Channel : Al",
"Points : 0",
"Range : 0.000000 - 0.000000",
"Step : 0.010000",
"Channel_info_end",
"Channel_info_start",
"Channel : Si",
"Points : 0",
"Range : 0.000000 - 0.000000",
"Step : 0.010000",
"Channel_info_end",
"Channel_info_start",
"Channel : P ",
"Points : 0",
"Range : 0.000000 - 0.000000",
"Step : 0.010000",
"Channel_info_end",
"Channel_info_start",
"Channel : S ",
"Points : 0",
"Range : 0.000000 - 0.000000",
"Step : 0.010000",
"Channel_info_end",
"Channel_info_start",
"Channel : Cl",
"Points : 0",
"Range : 0.000000 - 0.000000",
"Step : 0.010000",
"Channel_info_end",
"Channel_info_start",
"Channel : K ",
"Points : 0",
"Range : 0.000000 - 0.000000",
"Step : 0.010000",
"Channel_info_end",
"Channel_info_start",
"Channel : Ca",
"Points : 0",
"Range : 0.000000 - 0.000000",
"Step : 0.010000",
"Channel_info_end",
"Channel_info_start",
"Channel : Ti",
"Points : 0",
"Range : 0.000000 - 0.000000",
"Step : 0.010000",
"Channel_info_end",
"Channel_info_start",
"Channel : V ",
"Points : 0",
"Range : 0.000000 - 0.000000",
"Step : 0.010000",
"Channel_info_end",
"Channel_info_start",
"Channel : Cr",
"Points : 0",
"Range : 0.000000 - 0.000000",
"Step : 0.010000",
"Channel_info_end",
"Channel_info_start",
"Channel : Mn",
"Points : 0",
"Range : 0.000000 - 0.000000",
"Step : 0.010000",
"Channel_info_end",
"Channel_info_start",
"Channel : Fe",
"Points : 0",
"Range : 0.000000 - 0.000000",
"Step : 0.010000",
"Channel_info_end",
"Channel_info_start",
"Channel : Cu",
"Points : 0",
"Range : 0.000000 - 0.000000",
"Step : 0.010000",
"Channel_info_end",
"Channel_info_start",
"Channel : Zn",
"Points : 0",
"Range : 0.000000 - 0.000000",
"Step : 0.010000",
"Channel_info_end",
"Channel_info_start",
"Channel : Sr",
"Points : 0",
"Range : 0.000000 - 0.000000",
"Step : 0.010000",
"Channel_info_end",
"Channel_info_start",
"Channel : Pb",
"Points : 0",
"Range : 0.000000 - 0.000000",
"Step : 0.010000",
"Channel_info_end",
"",
"Qualitative Result",
"--------------------------------------------------------------------------------",
"Element :  Ga, Si, P , Ru",
"",
"Peak List",
"--------------------------------------------------------------------------------",
"Channel               Line        keV     Net Int.(cps/uA)",
"--------------------------------------------------------------------------------",
"Na                    GaLa         1.12     0.069",
"                      SiKa         1.76     0.023",
"                      P Ka         2.00     0.663",
"                      ----         3.68     0.166",
"                      P KaSUM      4.01     0.018",
"                      GaKa         9.24     5.172",
"                      GaKb        10.24     0.720",
"                      RuKa        19.16     0.122",
"                      ----        19.45     0.053",
"                      ----        20.02     0.046",
"--------------------------------------------------------------------------------",
"",
"Quantitative Result",
"--------------------------------------------------------------------------------",
"Analyte               Result             Std.Dev. Proc.-Calc. Line Intensity(cps/uA)",
"--------------------------------------------------------------------------------",
"====[No. 1 Layer]====< Layer1               >===============================",
"Layer1                   0.000 ug/cm2    -------- Flux       -------- --------",