File: inputs/edxCalibration/edx_raw/2010-06/KCl 31495.20100525205136.csv
"Sample    : KCl 31495",
"Operator  : luisf",
"Comment  : cubatao-g-policarbonato",
"Group     : kerr2007ag180cal_lt",
"Date       : 2010-05-25 20:47:22",
"",
"Mesurement Condition",
"------------------------------------------------------------------------------------",
"Instrument : 700HS2   Atmosphere : Vac.   Collimator : 10(mm)   Spin : No",
"------------------------------------------------------------------------------------",
"Analyte               TG kV   uA      FI Acq.(keV)  Anal.(keV)  Time(sec)     DT(%)",
"------------------------------------------------------------------------------------",
"Na                    Rh 50  548-Auto Al  0 - 20    0.8 - 1.2   Live -  179   15",
"",
"<Profile>",
"Channel_info_start",
"Channel : Na",
"Points : 2048",
"Range : 0.000000 - 20.48",
"Step : 0.010000",
"Channel_info_end",
"0",
"0",
"0",
"0",
"0",
"0",
"0",
"0",
"0",
"0",
"0",
"0",
"0",
"0",
"2",
"18",
"29",
"25",
"30",
"32",
"41",
"20",
"35",
"34",
"33",
"32",
"46",
"33",
"39",
"35",
"42",
"33",
"29",
"39",
"31",
"47",
"46",
"44",
"44",
"57",
"94",
"121",
"173",
"196",
"183",
"208",
"139",
"94",
"73",
"66",
"54",
"50",
"53",
"31",
"66",
"53",
"46",
"47",
"54",
"47",
"41",
"36",
"49",
"50",
"43",
"44",
"52",
"50",
"43",
"47",
"70",
"46",
"70",
"61",
"117",
"136",
"167",
"263",
"299",
"307",
"270",
"197",
"133",
"80",
"58",
"64",
"64",
"68",
"66",
"83",
"73",
"93",
"94",
"99",
"95",
"79",
"126",
"152",
"201",
"186",
"226",
"231",
"206",
"186",
"158",
"137",
"127",
"117",
"145",
"121",
"164",
"167",
"178",
"195",
"195",
"181",
"180",
"219",
"218",
"210",
"206",
"217",
"240",
"297",
"437",
"747",
"1515",
"2665",
"4735",
"7225",
"9202",
"9861",
"9537",
"7676",
"5453",
"3338",
"1864",
"1129",
"858",
"907",
"1080",
"1047",
"932",
"819",
"639",
"431",
"298",
"236",
"216",
"189",
"228",
"183",
"210",
"214",
"249",
"259",
"293",
"378",
"540",
"1072",
"2358",
"4360",
"7818",
"11874",
"16244",
"19033",
"20031",
"17657",
"13866",
"9369",
"5720",
"2962",
"1415",
"753",
"585",
"817",
"1279",
"1704",
"2211",
"2605",
"2883",
"2978",
"2810",
"2664",
"2639",
"2225",
"1852",
"1405",
"976",
"593",
"395",
"196",
"137",
"95",
"112",
"115",
"126",
"173",
"202",
"239",
"251",
"265",
"241",
"198",
"164",
"133",
"78",
"72",
"62",
"38",
"37",
"45",
"44",
"39",
"62",
"64",
"48",
"54",
"67",
"67",
"86",
"77",
"75",
"89",
"90",
"87",
"102",
"107",
"101",
"80",
"105",
"93",
"99",
"101",
"111",
"94",
"95",
"95",
"110",
"91",
"96",
"102",
"104",
"95",
"132",
"89",
"91",
"92",
"100",
"98",
"95",
"104",
"88",
"78",
"81",
"82",
"83",
"89",
"71",
"79",
"60",
"83",
"96",
"77",
"99",
"80",
"91",
"90",
"88",
"90",
"93",
"103",
"112",
"91",
"83",
"110",
"100",
"99",
"110",
"72",
"89",
"112",
"102",
"105",
"111",
"105",
"110",
"101",
"111",
"99",
"119",
"93",
"102",
"125",
"124",
"109",
"130",
"122",
"122",
"138",
"124",
"116",
"107",
"127",
"134",
"140",
"117",
"159",
"124",
"135",
"149",
"118",
"149",
"118",
"155",
"112",
"172",
"150",
"168",
"175",
"147",
"158",
"157",
"178",
"146",
"162",
"148",
"182",
"152",
"161",
"171",
"162",
"169",
"166",
"178",
"174",
"187",
"166",
"169",
"147",
"221",
"174",
"163",
"167",
"168",
"179",
"166",
"181",
"184",
"201",
"167",
"168",
"205",
"180",
"198",
"160",
"169",
"185",
"183",
"164",
"177",
"179",
"206",
"160",
"170",
"174",
"170",
"172",
"197",
"167",
"180",
"189",
"172",
"178",
"201",
"186",
"193",
"192",
"193",
"186",
"208",
"203",
"219",
"166",
"214",
"213",
"204",
"208",
"190",
"180",
"217",
"186",
"238",
"219",
"213",
"250",
"228",
"209",
"271",
"252",
"285",
"255",
"273",
"230",
"257",
"201",
"208",
"198",
"200",
"208",
"164",
"202",
"183",
"174",
"179",
"170",
"170",
"172",
"170",
"197",
"186",
"183",
"185",
"171",
"216",
"221",
"248",
"234",
"288",
"258",
"278",
"263",
"255",
"260",
"267",
"231",
"228",
"232",
"193",
"202",
"204",
"195",
"198",
"179",
"202",
"196",
"210",
"178",
"191",
"169",
"212",
"185",
"193",
"169",
"177",
"184",
"186",
"169",
"189",
"187",
"181",
"177",
"180",
"186",
"195",
"174",
"197",
"161",
"173",
"191",
"167",
"189",
"186",
"206",
"186",
"204",
"170",
"210",
"214",
"191",
"242",
"172",
"171",
"198",
"204",
"189",
"186",
"172",
"207",
"197",
"198",
"196",
"181",
"186",
"203",
"164",
"198",
"161",
"182",
"168",
"177",
"198",
"178",
"194",
"173",
"194",
"200",
"190",
"171",
"172",
"205",
"169",
"195",
"179",
"198",
"202",
"208",
"180",
"184",
"179",
"169",
"197",
"186",
"177",
"181",
"168",
"230",
"192",
"200",
"171",
"179",
"161",
"181",
"184",
"172",
"185",
"179",
"168",
"185",
"166",
"205",
"174",
"197",
"187",
"167",
"175",
"179",
"166",
"186",
"169",
"189",
"183",
"162",
"182",
"168",
"181",
"204",
"147",
"186",
"185",
"184",
"181",
"175",
"193",
"158",
"181",
"173",
"163",
"160",
"185",
"169",
"196",
"139",
"178",
"163",
"170",
"180",
"150",
"196",
"147",
"166",
"151",
"152",
"139",
"169",
"181",
"181",
"183",
"170",
"157",
"156",
"153",
"166",
"174",
"182",
"150",
"187",
"178",
"171",
"181",
"171",
"150",
"130",
"158",
"168",
"159",
"197",
"148",
"168",
"157",
"152",
"167",
"158",
"183",
"183",
"158",
"173",
"160",
"173",
"171",
"198",
"151",
"203",
"150",
"169",
"160",
"175",
"135",
"173",
"170",
"183",
"163",
"150",
"162",
"159",
"139",
"192",
"141",
"192",
"160",
"172",
"164",
"161",
"193",
"157",
"166",
"170",
"167",
"158",
"148",
"168",
"137",
"150",
"149",
"156",
"166",
"164",
"157",
"158",
"164",
"162",
"143",
"163",
"138",
"166",
"135",
"156",
"141",
"155",
"145",
"150",
"130",
"163",
"141",
"151",
"147",
"141",
"149",
"139",
"129",
"137",
"149",
"138",
"132",
"164",
"138",
"153",
"146",
"171",
"169",
"160",
"144",
"136",
"145",
"152",
"143",
"139",
"156",
"138",
"155",
"135",
"128",
"138",
"150",
"144",
"129",
"129",
"115",
"156",
"124",
"130",
"139",
"156",
"135",
"134",
"137",
"151",
"132",
"151",
"111",
"119",
"125",
"129",
"136",
"136",
"133",
"139",
"129",
"146",
"139",
"129",
"134",
"127",
"133",
"145",
"137",
"136",
"130",
"119",
"137",
"148",
"118",
"134",
"111",
"124",
"137",
"132",
"113",
"139",
"116",
"133",
"140",
"152",
"125",
"126",
"148",
"153",
"116",
"133",
"129",
"117",
"125",
"158",
"129",
"128",
"122",
"132",
"130",
"141",
"116",
"132",
"130",
"149",
"116",
"115",
"127",
"130",
"114",
"115",
"121",
"128",
"127",
"103",
"132",
"127",
"110",
"134",
"115",
"150",
"137",
"117",
"110",
"112",
"99",
"127",
"124",
"127",
"110",
"148",
"135",
"133",
"126",
"114",
"103",
"126",
"111",
"123",
"119",
"114",
"112",
"129",
"122",
"125",
"127",
"137",
"115",
"125",
"122",
"132",
"106",
"123",
"122",
"88",
"151",
"136",
"96",
"134",
"117",
"138",
"125",
"112",
"95",
"123",
"116",
"123",
"103",
"104",
"128",
"110",
"122",
"101",
"91",
"118",
"121",
"116",
"98",
"126",
"115",
"122",
"116",
"115",
"106",
"113",
"115",
"104",
"111",
"124",
"119",
"118",
"113",
"90",
"119",
"112",
"99",
"141",
"123",
"88",
"124",
"119",
"101",
"114",
"94",
"115",
"110",
"122",
"99",
"114",
"95",
"123",
"93",
"118",
"105",
"117",
"112",
"132",
"133",
"106",
"113",
"132",
"123",
"147",
"89",
"114",
"113",
"93",
"112",
"130",
"111",
"115",
"126",
"113",
"109",
"117",
"122",
"133",
"118",
"124",
"119",
"138",
"140",
"138",
"119",
"139",
"149",
"117",
"160",
"136",
"128",
"145",
"141",
"149",
"169",
"140",
"140",
"164",
"145",
"179",
"163",
"174",
"167",
"198",
"185",
"237",
"186",
"232",
"215",
"250",
"250",
"292",
"323",
"311",
"319",
"363",
"421",
"419",
"462",
"504",
"538",
"591",
"583",
"657",
"638",
"718",
"686",
"703",
"719",
"824",
"824",
"878",
"761",
"891",
"776",
"779",
"758",
"706",
"711",
"736",
"635",
"613",
"550",
"539",
"540",
"513",
"457",
"391",
"395",
"355",
"298",
"318",
"294",
"249",
"227",
"234",
"218",
"187",
"191",
"193",
"149",
"187",
"171",
"181",
"198",
"190",
"174",
"204",
"213",
"243",
"225",
"292",
"281",
"344",
"327",
"363",
"355",
"376",
"326",
"344",
"306",
"289",
"248",
"264",
"215",
"206",
"162",
"147",
"158",
"119",
"110",
"122",
"113",
"114",
"89",
"107",
"96",
"54055",
"Channel_info_start",
"Channel : Mg",
"Points : 0",
"Range : 0.000000 - 0.000000",
"Step : 0.010000",
"Channel_info_end",
"Channel_info_start",
"Channel : Al",
"Points : 0",
"Range : 0.000000 - 0.000000",
"Step : 0.010000",
"Channel_info_end",
"Channel_info_start",
"Channel : Si",
"Points : 0",
"Range : 0.000000 - 0.000000",
"Step : 0.010000",
"Channel_info_end",
"Channel_info_start",
"Channel : P ",
"Points : 0",
"Range : 0.000000 - 0.000000",
"Step : 0.010000",
"Channel_info_end",
"Channel_info_start",
"Channel : S ",
"Points : 0",
"Range : 0.000000 - 0.000000",
"Step : 0.010000",
"Channel_info_end",
"Channel_info_start",
"Channel : Cl",
"Points : 0",
"Range : 0.000000 - 0.000000",
"Step : 0.010000",
"Channel_info_end",
"Channel_info_start",
"Channel : K ",
"Points : 0",
"Range : 0.000000 - 0.000000",
"Step : 0.010000",
"Channel_info_end",
"Channel_info_start",
"Channel : Ca",
"Points : 0",
"Range : 0.000000 - 0.000000",
"Step : 0.010000",
"Channel_info_end",
"Channel_info_start",
"Channel : Ti",
"Points : 0",
"Range : 0.000000 - 0.000000",
"Step : 0.010000",
"Channel_info_end",
"Channel_info_start",
"Channel : V ",
"Points : 0",
"Range : 0.000000 - 0.000000",
"Step : 0.010000",
"Channel_info_end",
"Channel_info_start",
"Channel : Cr",
"Points : 0",
"Range : 0.000000 - 0.000000",
"Step : 0.010000",
"Channel_info_end",
"Channel_info_start",
"Channel : Mn",
"Points : 0",
"Range : 0.000000 - 0.000000",
"Step : 0.010000",
"Channel_info_end",
"Channel_info_start",
"Channel : Fe",
"Points : 0",
"Range : 0.000000 - 0.000000",
"Step : 0.010000",
"Channel_info_end",
"Channel_info_start",
"Channel : Cu",
"Points : 0",
"Range : 0.000000 - 0.000000",
"Step : 0.010000",
"Channel_info_end",
"Channel_info_start",
"Channel : Zn",
"Points : 0",
"Range : 0.000000 - 0.000000",
"Step : 0.010000",
"Channel_info_end",
"Channel_info_start",
"Channel : Sr",
"Points : 0",
"Range : 0.000000 - 0.000000",
"Step : 0.010000",
"Channel_info_end",
"Channel_info_start",
"Channel : Pb",
"Points : 0",
"Range : 0.000000 - 0.000000",
"Step : 0.010000",
"Channel_info_end",
"",
"Qualitative Result",
"--------------------------------------------------------------------------------",
"Element :  P , Cl, K , Ca, Zn",
"",
"Peak List",
"--------------------------------------------------------------------------------",
"Channel               Line        keV     Net Int.(cps/uA)",
"--------------------------------------------------------------------------------",
"Na                    ----         0.87     0.017",
"                      ----         1.57     0.029",
"                      P Ka         2.01     0.015",
"                      ClKa         2.62     1.296",
"                      ClKb         2.84     0.106",
"                      K Ka         3.32     2.767",
"                      K Kb         3.61     0.392",
"                      CaKa         3.69     0.215",
"                      CaKb         4.02     0.030",
"                      ZnKa         8.60     0.018",
"                      ----        19.13     0.135",
"                      ----        19.40     0.072",
"                      ----        20.00     0.044",
"--------------------------------------------------------------------------------",
"",
"Quantitative Result",
"--------------------------------------------------------------------------------",
"Analyte               Result             Std.Dev. Proc.-Calc. Line Intensity(cps/uA)",
"--------------------------------------------------------------------------------",
"====[No. 1 Layer]====< Layer1               >===============================",
"Layer1                   0.000 ug/cm2    -------- Flux       -------- --------",