File: inputs/edxCalibration/edx_raw/2010-06/kcl 31495.20100611000453.csv
"Sample    : kcl 31495",
"Operator  : thiago",
"Comment  : cubatao-g-policarbonato",
"Group     : kerr2007ag180cal_lt",
"Date       : 2010-06-11 00:00:39",
"",
"Mesurement Condition",
"------------------------------------------------------------------------------------",
"Instrument : 700HS2   Atmosphere : Vac.   Collimator : 10(mm)   Spin : No",
"------------------------------------------------------------------------------------",
"Analyte               TG kV   uA      FI Acq.(keV)  Anal.(keV)  Time(sec)     DT(%)",
"------------------------------------------------------------------------------------",
"Na                    Rh 50  548-Auto Al  0 - 20    0.8 - 1.2   Live -  179   15",
"",
"<Profile>",
"Channel_info_start",
"Channel : Na",
"Points : 2048",
"Range : 0.000000 - 20.48",
"Step : 0.010000",
"Channel_info_end",
"0",
"0",
"0",
"0",
"0",
"0",
"0",
"0",
"0",
"0",
"0",
"0",
"0",
"0",
"0",
"12",
"34",
"41",
"35",
"38",
"42",
"37",
"46",
"47",
"33",
"33",
"36",
"46",
"31",
"41",
"41",
"55",
"32",
"34",
"43",
"39",
"39",
"53",
"58",
"67",
"70",
"113",
"163",
"202",
"197",
"182",
"140",
"90",
"75",
"67",
"39",
"52",
"45",
"60",
"58",
"61",
"48",
"37",
"45",
"36",
"44",
"45",
"47",
"56",
"54",
"54",
"49",
"60",
"49",
"46",
"62",
"68",
"73",
"70",
"106",
"151",
"194",
"269",
"297",
"257",
"237",
"181",
"115",
"93",
"79",
"44",
"65",
"70",
"69",
"82",
"89",
"96",
"91",
"92",
"81",
"96",
"115",
"123",
"191",
"224",
"218",
"217",
"232",
"163",
"143",
"133",
"122",
"118",
"130",
"139",
"153",
"159",
"151",
"168",
"197",
"187",
"202",
"200",
"224",
"251",
"236",
"244",
"243",
"295",
"444",
"733",
"1469",
"2732",
"4694",
"7032",
"9009",
"9813",
"9642",
"7732",
"5412",
"3171",
"1777",
"1061",
"910",
"955",
"1039",
"1116",
"973",
"750",
"586",
"400",
"296",
"227",
"225",
"189",
"186",
"218",
"233",
"217",
"261",
"271",
"282",
"386",
"640",
"1133",
"2350",
"4267",
"7845",
"11731",
"16266",
"18785",
"19892",
"17424",
"13587",
"9546",
"5741",
"2928",
"1432",
"743",
"599",
"794",
"1241",
"1652",
"2259",
"2572",
"2816",
"2917",
"2837",
"2760",
"2565",
"2298",
"1797",
"1378",
"957",
"560",
"327",
"204",
"132",
"122",
"102",
"110",
"137",
"158",
"193",
"257",
"277",
"288",
"262",
"240",
"195",
"115",
"103",
"76",
"55",
"48",
"44",
"44",
"50",
"41",
"39",
"42",
"59",
"56",
"50",
"81",
"69",
"96",
"99",
"107",
"95",
"114",
"117",
"78",
"104",
"107",
"122",
"110",
"102",
"111",
"134",
"116",
"129",
"122",
"138",
"124",
"143",
"106",
"114",
"114",
"116",
"106",
"113",
"80",
"128",
"111",
"81",
"96",
"94",
"80",
"80",
"98",
"88",
"64",
"76",
"75",
"78",
"90",
"87",
"60",
"83",
"73",
"91",
"83",
"91",
"78",
"109",
"89",
"113",
"105",
"104",
"88",
"91",
"106",
"93",
"95",
"105",
"88",
"87",
"109",
"96",
"84",
"102",
"114",
"94",
"114",
"102",
"82",
"125",
"112",
"111",
"119",
"126",
"158",
"121",
"122",
"130",
"119",
"125",
"148",
"146",
"128",
"117",
"136",
"126",
"147",
"151",
"141",
"111",
"153",
"163",
"146",
"167",
"164",
"178",
"171",
"184",
"172",
"160",
"180",
"181",
"148",
"151",
"145",
"155",
"189",
"178",
"170",
"176",
"194",
"201",
"158",
"197",
"167",
"164",
"166",
"164",
"201",
"182",
"180",
"178",
"173",
"189",
"175",
"192",
"203",
"187",
"171",
"210",
"203",
"223",
"194",
"241",
"224",
"236",
"228",
"226",
"193",
"196",
"196",
"219",
"204",
"214",
"198",
"198",
"182",
"230",
"200",
"193",
"184",
"195",
"184",
"216",
"192",
"190",
"181",
"215",
"205",
"178",
"156",
"164",
"156",
"181",
"189",
"171",
"213",
"190",
"215",
"197",
"213",
"227",
"189",
"187",
"257",
"233",
"242",
"220",
"250",
"267",
"231",
"250",
"241",
"195",
"202",
"182",
"195",
"167",
"184",
"173",
"191",
"217",
"187",
"196",
"190",
"190",
"178",
"200",
"182",
"179",
"192",
"200",
"205",
"201",
"235",
"235",
"248",
"280",
"272",
"300",
"249",
"269",
"232",
"223",
"223",
"187",
"195",
"180",
"170",
"233",
"187",
"181",
"189",
"189",
"186",
"206",
"174",
"175",
"176",
"182",
"183",
"178",
"170",
"194",
"189",
"163",
"186",
"158",
"146",
"156",
"173",
"179",
"161",
"173",
"170",
"193",
"179",
"202",
"168",
"158",
"230",
"182",
"176",
"197",
"191",
"198",
"192",
"225",
"186",
"215",
"194",
"174",
"203",
"182",
"193",
"185",
"197",
"190",
"192",
"193",
"201",
"185",
"180",
"229",
"192",
"186",
"184",
"236",
"179",
"178",
"193",
"193",
"180",
"159",
"217",
"192",
"203",
"213",
"214",
"230",
"176",
"178",
"207",
"191",
"185",
"195",
"182",
"191",
"159",
"200",
"197",
"201",
"187",
"172",
"189",
"173",
"184",
"194",
"170",
"171",
"180",
"208",
"206",
"195",
"169",
"184",
"180",
"198",
"170",
"198",
"172",
"163",
"146",
"155",
"184",
"190",
"169",
"172",
"161",
"179",
"178",
"185",
"171",
"146",
"182",
"173",
"191",
"195",
"164",
"175",
"168",
"137",
"179",
"166",
"183",
"156",
"155",
"169",
"179",
"194",
"161",
"164",
"166",
"182",
"170",
"138",
"161",
"167",
"169",
"166",
"156",
"181",
"172",
"183",
"183",
"173",
"168",
"157",
"170",
"174",
"178",
"150",
"193",
"171",
"159",
"172",
"166",
"162",
"183",
"161",
"170",
"174",
"147",
"157",
"185",
"178",
"162",
"183",
"159",
"201",
"174",
"176",
"180",
"184",
"143",
"192",
"167",
"195",
"162",
"181",
"168",
"202",
"148",
"182",
"171",
"182",
"179",
"164",
"166",
"179",
"170",
"191",
"157",
"167",
"139",
"176",
"138",
"148",
"145",
"151",
"146",
"171",
"138",
"150",
"145",
"164",
"151",
"153",
"155",
"147",
"162",
"149",
"146",
"149",
"133",
"136",
"153",
"143",
"149",
"137",
"158",
"143",
"167",
"152",
"162",
"179",
"155",
"158",
"138",
"144",
"152",
"168",
"125",
"138",
"153",
"153",
"143",
"139",
"167",
"155",
"148",
"130",
"144",
"149",
"151",
"170",
"153",
"152",
"139",
"135",
"141",
"152",
"160",
"150",
"129",
"150",
"116",
"172",
"121",
"164",
"147",
"183",
"139",
"152",
"146",
"130",
"118",
"133",
"135",
"159",
"141",
"130",
"135",
"123",
"147",
"137",
"136",
"143",
"138",
"146",
"135",
"148",
"148",
"133",
"127",
"134",
"138",
"151",
"129",
"147",
"145",
"140",
"135",
"135",
"115",
"168",
"128",
"129",
"138",
"117",
"130",
"103",
"139",
"141",
"124",
"119",
"146",
"114",
"112",
"116",
"139",
"129",
"122",
"136",
"139",
"117",
"118",
"124",
"152",
"133",
"138",
"135",
"89",
"149",
"116",
"143",
"123",
"90",
"126",
"125",
"113",
"124",
"126",
"138",
"134",
"140",
"127",
"114",
"128",
"147",
"130",
"144",
"106",
"113",
"118",
"128",
"104",
"110",
"114",
"141",
"125",
"113",
"127",
"124",
"132",
"161",
"128",
"127",
"107",
"118",
"109",
"114",
"127",
"130",
"126",
"104",
"113",
"119",
"115",
"107",
"114",
"129",
"116",
"117",
"94",
"112",
"92",
"137",
"105",
"107",
"117",
"129",
"113",
"109",
"113",
"114",
"107",
"118",
"116",
"102",
"116",
"110",
"121",
"126",
"129",
"127",
"106",
"123",
"116",
"122",
"111",
"116",
"117",
"135",
"109",
"110",
"118",
"103",
"109",
"117",
"123",
"138",
"106",
"119",
"118",
"123",
"117",
"114",
"105",
"111",
"119",
"112",
"110",
"105",
"129",
"115",
"104",
"118",
"112",
"104",
"134",
"105",
"107",
"87",
"102",
"117",
"96",
"116",
"86",
"112",
"95",
"119",
"117",
"121",
"116",
"117",
"122",
"133",
"110",
"130",
"122",
"113",
"125",
"132",
"124",
"134",
"134",
"124",
"100",
"127",
"106",
"136",
"141",
"118",
"124",
"101",
"117",
"145",
"144",
"130",
"121",
"129",
"135",
"145",
"121",
"136",
"138",
"136",
"139",
"139",
"143",
"151",
"166",
"180",
"182",
"150",
"192",
"229",
"189",
"233",
"215",
"228",
"212",
"225",
"247",
"300",
"300",
"309",
"328",
"394",
"387",
"469",
"443",
"485",
"494",
"539",
"580",
"672",
"634",
"706",
"749",
"732",
"718",
"787",
"761",
"794",
"796",
"854",
"742",
"767",
"740",
"734",
"669",
"686",
"659",
"671",
"539",
"528",
"539",
"554",
"423",
"422",
"389",
"365",
"331",
"295",
"314",
"278",
"264",
"243",
"218",
"203",
"185",
"202",
"193",
"180",
"171",
"194",
"150",
"190",
"215",
"196",
"230",
"267",
"280",
"285",
"274",
"297",
"299",
"343",
"304",
"350",
"304",
"303",
"320",
"341",
"242",
"267",
"221",
"214",
"170",
"167",
"138",
"132",
"91",
"104",
"113",
"105",
"107",
"111",
"104",
"54297",
"Channel_info_start",
"Channel : Mg",
"Points : 0",
"Range : 0.000000 - 0.000000",
"Step : 0.010000",
"Channel_info_end",
"Channel_info_start",
"Channel : Al",
"Points : 0",
"Range : 0.000000 - 0.000000",
"Step : 0.010000",
"Channel_info_end",
"Channel_info_start",
"Channel : Si",
"Points : 0",
"Range : 0.000000 - 0.000000",
"Step : 0.010000",
"Channel_info_end",
"Channel_info_start",
"Channel : P ",
"Points : 0",
"Range : 0.000000 - 0.000000",
"Step : 0.010000",
"Channel_info_end",
"Channel_info_start",
"Channel : S ",
"Points : 0",
"Range : 0.000000 - 0.000000",
"Step : 0.010000",
"Channel_info_end",
"Channel_info_start",
"Channel : Cl",
"Points : 0",
"Range : 0.000000 - 0.000000",
"Step : 0.010000",
"Channel_info_end",
"Channel_info_start",
"Channel : K ",
"Points : 0",
"Range : 0.000000 - 0.000000",
"Step : 0.010000",
"Channel_info_end",
"Channel_info_start",
"Channel : Ca",
"Points : 0",
"Range : 0.000000 - 0.000000",
"Step : 0.010000",
"Channel_info_end",
"Channel_info_start",
"Channel : Ti",
"Points : 0",
"Range : 0.000000 - 0.000000",
"Step : 0.010000",
"Channel_info_end",
"Channel_info_start",
"Channel : V ",
"Points : 0",
"Range : 0.000000 - 0.000000",
"Step : 0.010000",
"Channel_info_end",
"Channel_info_start",
"Channel : Cr",
"Points : 0",
"Range : 0.000000 - 0.000000",
"Step : 0.010000",
"Channel_info_end",
"Channel_info_start",
"Channel : Mn",
"Points : 0",
"Range : 0.000000 - 0.000000",
"Step : 0.010000",
"Channel_info_end",
"Channel_info_start",
"Channel : Fe",
"Points : 0",
"Range : 0.000000 - 0.000000",
"Step : 0.010000",
"Channel_info_end",
"Channel_info_start",
"Channel : Cu",
"Points : 0",
"Range : 0.000000 - 0.000000",
"Step : 0.010000",
"Channel_info_end",
"Channel_info_start",
"Channel : Zn",
"Points : 0",
"Range : 0.000000 - 0.000000",
"Step : 0.010000",
"Channel_info_end",
"Channel_info_start",
"Channel : Sr",
"Points : 0",
"Range : 0.000000 - 0.000000",
"Step : 0.010000",
"Channel_info_end",
"Channel_info_start",
"Channel : Pb",
"Points : 0",
"Range : 0.000000 - 0.000000",
"Step : 0.010000",
"Channel_info_end",
"",
"Qualitative Result",
"--------------------------------------------------------------------------------",
"Element :  K , P , Cl, Ca, Zn, Ru",
"",
"Peak List",
"--------------------------------------------------------------------------------",
"Channel               Line        keV     Net Int.(cps/uA)",
"--------------------------------------------------------------------------------",
"Na                    ----         0.88     0.017",
"                      K KaESC      1.56     0.026",
"                      P Ka         2.00     0.015",
"                      ClKa         2.62     1.289",
"                      ClKb         2.84     0.102",
"                      K Ka         3.32     2.727",
"                      K Kb         3.60     0.377",
"                      CaKa         3.69     0.229",
"                      CaKb         4.01     0.032",
"                      ----         4.76     0.012",
"                      ZnKa         8.63     0.019",
"                      RuKa        19.24     0.124",
"                      ----        19.95     0.028",
"--------------------------------------------------------------------------------",
"",
"Quantitative Result",
"--------------------------------------------------------------------------------",
"Analyte               Result             Std.Dev. Proc.-Calc. Line Intensity(cps/uA)",
"--------------------------------------------------------------------------------",
"====[No. 1 Layer]====< Layer1               >===============================",
"Layer1                   0.000 ug/cm2    -------- Flux       -------- --------",