File: inputs/edxCalibration/edx_raw/2010-06/kcl 31494.20100611000902.csv
"Sample    : kcl 31494",
"Operator  : thiago",
"Comment  : cubatao-g-policarbonato",
"Group     : kerr2007ag180cal_lt",
"Date       : 2010-06-11 00:04:51",
"",
"Mesurement Condition",
"------------------------------------------------------------------------------------",
"Instrument : 700HS2   Atmosphere : Vac.   Collimator : 10(mm)   Spin : No",
"------------------------------------------------------------------------------------",
"Analyte               TG kV   uA      FI Acq.(keV)  Anal.(keV)  Time(sec)     DT(%)",
"------------------------------------------------------------------------------------",
"Na                    Rh 50  500-Auto Al  0 - 20    0.8 - 1.2   Live -  179   15",
"",
"<Profile>",
"Channel_info_start",
"Channel : Na",
"Points : 2048",
"Range : 0.000000 - 20.48",
"Step : 0.010000",
"Channel_info_end",
"0",
"0",
"0",
"0",
"0",
"0",
"0",
"0",
"0",
"0",
"0",
"0",
"0",
"0",
"0",
"16",
"35",
"33",
"38",
"37",
"31",
"25",
"33",
"24",
"33",
"33",
"25",
"26",
"29",
"36",
"39",
"33",
"32",
"45",
"44",
"34",
"28",
"38",
"44",
"53",
"77",
"106",
"135",
"184",
"215",
"165",
"129",
"110",
"70",
"45",
"57",
"47",
"60",
"51",
"49",
"51",
"44",
"37",
"41",
"37",
"46",
"33",
"39",
"47",
"44",
"37",
"60",
"55",
"46",
"45",
"62",
"52",
"70",
"81",
"105",
"130",
"206",
"245",
"301",
"281",
"221",
"195",
"121",
"91",
"82",
"74",
"62",
"60",
"62",
"79",
"65",
"85",
"76",
"104",
"68",
"83",
"112",
"118",
"163",
"208",
"189",
"217",
"180",
"160",
"137",
"120",
"123",
"97",
"120",
"111",
"128",
"161",
"173",
"165",
"169",
"193",
"231",
"205",
"183",
"229",
"243",
"247",
"293",
"305",
"420",
"689",
"1340",
"2687",
"4540",
"6708",
"8752",
"9536",
"9172",
"7355",
"5301",
"3002",
"1665",
"1026",
"850",
"895",
"1076",
"972",
"951",
"786",
"591",
"429",
"296",
"231",
"177",
"199",
"206",
"190",
"190",
"213",
"235",
"255",
"292",
"359",
"567",
"1012",
"2120",
"3993",
"7456",
"11104",
"15629",
"18361",
"19330",
"16877",
"12995",
"8755",
"5484",
"2825",
"1345",
"674",
"531",
"719",
"1159",
"1611",
"2149",
"2423",
"2667",
"2780",
"2684",
"2503",
"2390",
"2064",
"1670",
"1227",
"938",
"506",
"285",
"182",
"144",
"103",
"96",
"110",
"120",
"148",
"209",
"260",
"240",
"249",
"223",
"189",
"139",
"115",
"92",
"63",
"50",
"51",
"40",
"43",
"49",
"35",
"46",
"40",
"41",
"44",
"58",
"70",
"60",
"73",
"71",
"83",
"88",
"98",
"87",
"93",
"103",
"86",
"119",
"88",
"97",
"104",
"93",
"82",
"97",
"87",
"91",
"104",
"106",
"110",
"104",
"105",
"95",
"109",
"117",
"96",
"115",
"100",
"84",
"73",
"100",
"74",
"98",
"98",
"72",
"70",
"65",
"75",
"75",
"85",
"83",
"79",
"77",
"69",
"76",
"86",
"101",
"67",
"92",
"91",
"86",
"99",
"83",
"77",
"98",
"80",
"99",
"101",
"106",
"96",
"97",
"91",
"104",
"96",
"89",
"104",
"110",
"97",
"95",
"92",
"101",
"109",
"82",
"111",
"101",
"106",
"124",
"128",
"127",
"116",
"115",
"118",
"137",
"136",
"137",
"134",
"123",
"132",
"135",
"124",
"130",
"123",
"121",
"129",
"136",
"160",
"152",
"159",
"170",
"149",
"152",
"148",
"155",
"127",
"159",
"144",
"146",
"140",
"160",
"149",
"166",
"161",
"163",
"155",
"169",
"147",
"151",
"136",
"169",
"164",
"156",
"157",
"176",
"166",
"166",
"155",
"169",
"148",
"169",
"156",
"163",
"161",
"144",
"172",
"168",
"178",
"191",
"175",
"180",
"155",
"187",
"175",
"166",
"166",
"207",
"161",
"161",
"183",
"185",
"157",
"177",
"170",
"213",
"188",
"184",
"169",
"160",
"183",
"205",
"171",
"215",
"184",
"218",
"201",
"168",
"184",
"215",
"182",
"206",
"206",
"194",
"202",
"224",
"194",
"192",
"221",
"211",
"202",
"227",
"204",
"215",
"237",
"211",
"226",
"204",
"187",
"204",
"177",
"220",
"168",
"156",
"168",
"176",
"139",
"204",
"204",
"152",
"192",
"180",
"172",
"167",
"193",
"159",
"223",
"188",
"244",
"255",
"256",
"278",
"252",
"235",
"260",
"238",
"208",
"219",
"190",
"193",
"181",
"164",
"188",
"185",
"165",
"171",
"189",
"171",
"159",
"178",
"151",
"183",
"134",
"164",
"179",
"173",
"134",
"173",
"176",
"187",
"193",
"159",
"159",
"163",
"167",
"161",
"184",
"182",
"171",
"173",
"160",
"154",
"167",
"171",
"169",
"188",
"171",
"163",
"193",
"189",
"205",
"197",
"171",
"172",
"176",
"180",
"166",
"170",
"165",
"187",
"164",
"170",
"182",
"156",
"167",
"172",
"184",
"212",
"185",
"214",
"159",
"189",
"184",
"170",
"199",
"184",
"193",
"185",
"177",
"165",
"202",
"192",
"176",
"167",
"147",
"184",
"188",
"182",
"147",
"168",
"196",
"157",
"177",
"187",
"160",
"191",
"168",
"164",
"157",
"152",
"153",
"180",
"149",
"164",
"148",
"169",
"143",
"171",
"167",
"152",
"180",
"166",
"181",
"154",
"153",
"195",
"159",
"159",
"125",
"192",
"165",
"145",
"173",
"159",
"175",
"167",
"166",
"142",
"171",
"164",
"161",
"182",
"160",
"147",
"152",
"181",
"149",
"166",
"146",
"152",
"147",
"135",
"149",
"167",
"164",
"167",
"147",
"166",
"144",
"147",
"159",
"156",
"144",
"155",
"158",
"139",
"155",
"159",
"181",
"171",
"161",
"170",
"167",
"165",
"177",
"155",
"153",
"155",
"154",
"157",
"147",
"161",
"167",
"173",
"154",
"155",
"152",
"137",
"166",
"163",
"167",
"129",
"156",
"120",
"141",
"175",
"147",
"170",
"159",
"135",
"144",
"146",
"173",
"163",
"173",
"164",
"137",
"168",
"171",
"160",
"149",
"157",
"140",
"148",
"136",
"156",
"132",
"147",
"154",
"140",
"127",
"148",
"165",
"144",
"131",
"160",
"148",
"149",
"147",
"154",
"153",
"156",
"152",
"159",
"153",
"144",
"149",
"159",
"134",
"137",
"156",
"146",
"154",
"152",
"129",
"169",
"129",
"140",
"145",
"143",
"134",
"145",
"130",
"151",
"133",
"125",
"131",
"153",
"145",
"147",
"143",
"137",
"124",
"140",
"119",
"125",
"117",
"146",
"135",
"140",
"148",
"140",
"149",
"163",
"111",
"128",
"136",
"133",
"135",
"132",
"131",
"140",
"132",
"144",
"125",
"133",
"121",
"140",
"132",
"151",
"139",
"141",
"115",
"130",
"131",
"122",
"116",
"157",
"142",
"131",
"132",
"119",
"127",
"128",
"129",
"142",
"134",
"130",
"117",
"123",
"151",
"161",
"142",
"124",
"115",
"122",
"118",
"152",
"93",
"128",
"117",
"105",
"135",
"111",
"123",
"130",
"134",
"119",
"135",
"132",
"112",
"120",
"112",
"129",
"117",
"110",
"121",
"121",
"136",
"125",
"122",
"144",
"121",
"121",
"96",
"128",
"135",
"101",
"106",
"125",
"120",
"144",
"122",
"124",
"107",
"122",
"130",
"133",
"119",
"131",
"116",
"116",
"120",
"99",
"117",
"125",
"107",
"95",
"134",
"110",
"115",
"103",
"120",
"128",
"113",
"119",
"107",
"116",
"100",
"106",
"112",
"118",
"108",
"98",
"110",
"120",
"100",
"122",
"119",
"122",
"117",
"128",
"100",
"89",
"93",
"99",
"107",
"113",
"108",
"122",
"106",
"105",
"118",
"115",
"119",
"122",
"117",
"99",
"109",
"134",
"120",
"113",
"105",
"128",
"94",
"100",
"107",
"119",
"92",
"104",
"83",
"91",
"100",
"91",
"119",
"109",
"93",
"106",
"101",
"103",
"101",
"117",
"100",
"123",
"93",
"103",
"97",
"106",
"121",
"88",
"115",
"103",
"94",
"100",
"98",
"130",
"107",
"106",
"127",
"115",
"86",
"105",
"112",
"107",
"108",
"112",
"144",
"118",
"100",
"96",
"107",
"105",
"88",
"87",
"97",
"115",
"104",
"105",
"100",
"107",
"108",
"125",
"108",
"111",
"113",
"109",
"92",
"135",
"125",
"112",
"122",
"116",
"110",
"117",
"117",
"127",
"118",
"115",
"97",
"133",
"123",
"105",
"117",
"122",
"107",
"120",
"145",
"117",
"130",
"139",
"122",
"139",
"130",
"160",
"139",
"157",
"147",
"183",
"147",
"185",
"166",
"168",
"155",
"188",
"182",
"205",
"214",
"239",
"255",
"260",
"285",
"301",
"292",
"349",
"407",
"427",
"417",
"441",
"473",
"503",
"550",
"650",
"554",
"694",
"668",
"692",
"693",
"725",
"736",
"744",
"747",
"815",
"716",
"723",
"691",
"731",
"663",
"686",
"610",
"608",
"536",
"511",
"516",
"509",
"400",
"394",
"379",
"347",
"290",
"277",
"255",
"263",
"209",
"209",
"195",
"184",
"178",
"201",
"166",
"161",
"166",
"171",
"179",
"185",
"196",
"173",
"172",
"231",
"227",
"299",
"268",
"328",
"326",
"316",
"313",
"325",
"343",
"300",
"274",
"296",
"272",
"243",
"214",
"167",
"172",
"136",
"140",
"118",
"109",
"106",
"91",
"100",
"101",
"101",
"86",
"50442",
"Channel_info_start",
"Channel : Mg",
"Points : 0",
"Range : 0.000000 - 0.000000",
"Step : 0.010000",
"Channel_info_end",
"Channel_info_start",
"Channel : Al",
"Points : 0",
"Range : 0.000000 - 0.000000",
"Step : 0.010000",
"Channel_info_end",
"Channel_info_start",
"Channel : Si",
"Points : 0",
"Range : 0.000000 - 0.000000",
"Step : 0.010000",
"Channel_info_end",
"Channel_info_start",
"Channel : P ",
"Points : 0",
"Range : 0.000000 - 0.000000",
"Step : 0.010000",
"Channel_info_end",
"Channel_info_start",
"Channel : S ",
"Points : 0",
"Range : 0.000000 - 0.000000",
"Step : 0.010000",
"Channel_info_end",
"Channel_info_start",
"Channel : Cl",
"Points : 0",
"Range : 0.000000 - 0.000000",
"Step : 0.010000",
"Channel_info_end",
"Channel_info_start",
"Channel : K ",
"Points : 0",
"Range : 0.000000 - 0.000000",
"Step : 0.010000",
"Channel_info_end",
"Channel_info_start",
"Channel : Ca",
"Points : 0",
"Range : 0.000000 - 0.000000",
"Step : 0.010000",
"Channel_info_end",
"Channel_info_start",
"Channel : Ti",
"Points : 0",
"Range : 0.000000 - 0.000000",
"Step : 0.010000",
"Channel_info_end",
"Channel_info_start",
"Channel : V ",
"Points : 0",
"Range : 0.000000 - 0.000000",
"Step : 0.010000",
"Channel_info_end",
"Channel_info_start",
"Channel : Cr",
"Points : 0",
"Range : 0.000000 - 0.000000",
"Step : 0.010000",
"Channel_info_end",
"Channel_info_start",
"Channel : Mn",
"Points : 0",
"Range : 0.000000 - 0.000000",
"Step : 0.010000",
"Channel_info_end",
"Channel_info_start",
"Channel : Fe",
"Points : 0",
"Range : 0.000000 - 0.000000",
"Step : 0.010000",
"Channel_info_end",
"Channel_info_start",
"Channel : Cu",
"Points : 0",
"Range : 0.000000 - 0.000000",
"Step : 0.010000",
"Channel_info_end",
"Channel_info_start",
"Channel : Zn",
"Points : 0",
"Range : 0.000000 - 0.000000",
"Step : 0.010000",
"Channel_info_end",
"Channel_info_start",
"Channel : Sr",
"Points : 0",
"Range : 0.000000 - 0.000000",
"Step : 0.010000",
"Channel_info_end",
"Channel_info_start",
"Channel : Pb",
"Points : 0",
"Range : 0.000000 - 0.000000",
"Step : 0.010000",
"Channel_info_end",
"",
"Qualitative Result",
"--------------------------------------------------------------------------------",
"Element :  P , Cl, K , Ca, Ru",
"",
"Peak List",
"--------------------------------------------------------------------------------",
"Channel               Line        keV     Net Int.(cps/uA)",
"--------------------------------------------------------------------------------",
"Na                    ----         0.87     0.020",
"                      ----         1.56     0.030",
"                      P Ka         2.01     0.015",
"                      ClKa         2.62     1.371",
"                      ClKb         2.84     0.112",
"                      K Ka         3.32     2.894",
"                      K Kb         3.61     0.392",
"                      CaKa         3.69     0.172",
"                      CaKb         4.01     0.024",
"                      RuKa        19.20     0.142",
"                      ----        19.41     0.075",
"                      ----        20.01     0.051",
"--------------------------------------------------------------------------------",
"",
"Quantitative Result",
"--------------------------------------------------------------------------------",
"Analyte               Result             Std.Dev. Proc.-Calc. Line Intensity(cps/uA)",
"--------------------------------------------------------------------------------",
"====[No. 1 Layer]====< Layer1               >===============================",
"Layer1                   0.000 ug/cm2    -------- Flux       -------- --------",