File: inputs/edxCalibration/edx_raw/2010-06/mg 15751.20100525200723.csv
"Sample    : mg 15751",
"Operator  : thiago",
"Comment  : cubatao-g-policarbonato",
"Group     : kerr2007ag180cal_lt",
"Date       : 2010-05-25 20:03:14",
"",
"Mesurement Condition",
"------------------------------------------------------------------------------------",
"Instrument : 700HS2   Atmosphere : Vac.   Collimator : 10(mm)   Spin : No",
"------------------------------------------------------------------------------------",
"Analyte               TG kV   uA      FI Acq.(keV)  Anal.(keV)  Time(sec)     DT(%)",
"------------------------------------------------------------------------------------",
"Na                    Rh 50  970-Auto Al  0 - 20    0.8 - 1.2   Live -  179   14",
"",
"<Profile>",
"Channel_info_start",
"Channel : Na",
"Points : 2048",
"Range : 0.000000 - 20.48",
"Step : 0.010000",
"Channel_info_end",
"0",
"0",
"0",
"0",
"0",
"0",
"0",
"0",
"0",
"0",
"0",
"0",
"0",
"0",
"1",
"17",
"37",
"53",
"51",
"44",
"48",
"44",
"50",
"47",
"46",
"46",
"50",
"45",
"51",
"50",
"34",
"42",
"48",
"48",
"48",
"53",
"46",
"45",
"58",
"42",
"36",
"45",
"37",
"33",
"28",
"38",
"40",
"48",
"44",
"51",
"52",
"50",
"62",
"51",
"67",
"68",
"95",
"126",
"296",
"549",
"1031",
"1497",
"1751",
"1691",
"1505",
"1164",
"721",
"334",
"177",
"92",
"66",
"59",
"53",
"51",
"41",
"55",
"62",
"32",
"39",
"33",
"43",
"57",
"42",
"42",
"42",
"44",
"51",
"65",
"48",
"48",
"56",
"33",
"51",
"42",
"62",
"75",
"80",
"101",
"142",
"167",
"169",
"192",
"159",
"125",
"130",
"54",
"57",
"48",
"32",
"48",
"42",
"34",
"32",
"38",
"38",
"45",
"33",
"38",
"40",
"40",
"32",
"29",
"34",
"33",
"27",
"22",
"27",
"33",
"27",
"32",
"34",
"34",
"43",
"47",
"47",
"50",
"54",
"52",
"40",
"54",
"40",
"52",
"57",
"56",
"50",
"42",
"45",
"37",
"37",
"28",
"43",
"48",
"33",
"38",
"36",
"52",
"32",
"47",
"51",
"37",
"55",
"60",
"40",
"38",
"41",
"43",
"38",
"43",
"38",
"41",
"42",
"46",
"54",
"64",
"65",
"83",
"123",
"199",
"289",
"491",
"790",
"1120",
"1555",
"1926",
"2100",
"2097",
"1925",
"1504",
"1093",
"689",
"449",
"280",
"215",
"204",
"199",
"174",
"206",
"214",
"274",
"299",
"322",
"323",
"285",
"288",
"249",
"188",
"171",
"122",
"90",
"89",
"83",
"82",
"85",
"83",
"107",
"117",
"126",
"103",
"143",
"135",
"139",
"134",
"132",
"167",
"139",
"165",
"171",
"171",
"157",
"144",
"165",
"176",
"158",
"157",
"145",
"135",
"151",
"124",
"154",
"157",
"131",
"136",
"148",
"126",
"143",
"135",
"128",
"136",
"106",
"141",
"136",
"124",
"153",
"135",
"152",
"155",
"144",
"187",
"158",
"149",
"154",
"144",
"163",
"145",
"186",
"185",
"187",
"137",
"157",
"167",
"181",
"178",
"214",
"174",
"177",
"164",
"145",
"168",
"173",
"199",
"168",
"178",
"193",
"171",
"186",
"180",
"193",
"196",
"183",
"193",
"228",
"196",
"206",
"198",
"212",
"223",
"206",
"250",
"234",
"243",
"223",
"237",
"250",
"248",
"254",
"268",
"245",
"237",
"235",
"235",
"255",
"271",
"280",
"264",
"253",
"254",
"284",
"291",
"331",
"315",
"322",
"324",
"273",
"305",
"274",
"304",
"281",
"331",
"270",
"298",
"309",
"292",
"316",
"292",
"309",
"320",
"298",
"274",
"317",
"303",
"333",
"325",
"320",
"326",
"334",
"281",
"307",
"336",
"323",
"315",
"326",
"350",
"308",
"330",
"349",
"323",
"335",
"294",
"274",
"320",
"313",
"281",
"330",
"299",
"337",
"283",
"292",
"341",
"337",
"318",
"318",
"318",
"338",
"313",
"377",
"323",
"325",
"329",
"298",
"337",
"350",
"316",
"331",
"336",
"343",
"338",
"326",
"340",
"371",
"332",
"366",
"373",
"349",
"389",
"368",
"362",
"393",
"365",
"396",
"404",
"432",
"405",
"421",
"403",
"422",
"377",
"359",
"367",
"309",
"336",
"341",
"345",
"366",
"351",
"358",
"321",
"332",
"297",
"361",
"324",
"380",
"358",
"321",
"360",
"374",
"369",
"424",
"411",
"456",
"404",
"484",
"491",
"509",
"474",
"471",
"471",
"410",
"383",
"387",
"347",
"347",
"336",
"360",
"324",
"364",
"353",
"313",
"337",
"346",
"297",
"353",
"338",
"358",
"330",
"298",
"357",
"320",
"321",
"322",
"347",
"331",
"315",
"312",
"302",
"351",
"335",
"298",
"329",
"313",
"322",
"332",
"341",
"316",
"315",
"344",
"336",
"373",
"341",
"343",
"352",
"348",
"322",
"326",
"333",
"255",
"304",
"298",
"302",
"311",
"299",
"319",
"302",
"329",
"273",
"326",
"331",
"344",
"285",
"312",
"309",
"310",
"323",
"327",
"363",
"302",
"344",
"354",
"349",
"341",
"273",
"339",
"285",
"309",
"324",
"313",
"276",
"339",
"304",
"332",
"338",
"325",
"310",
"349",
"310",
"326",
"301",
"332",
"307",
"316",
"305",
"298",
"317",
"327",
"284",
"316",
"325",
"315",
"289",
"305",
"296",
"327",
"310",
"296",
"302",
"349",
"310",
"335",
"304",
"297",
"295",
"306",
"326",
"339",
"303",
"311",
"319",
"312",
"305",
"326",
"307",
"332",
"298",
"306",
"310",
"315",
"306",
"311",
"310",
"282",
"320",
"275",
"296",
"311",
"308",
"298",
"283",
"303",
"323",
"302",
"301",
"308",
"306",
"331",
"317",
"301",
"277",
"289",
"303",
"299",
"277",
"287",
"295",
"288",
"320",
"338",
"267",
"317",
"299",
"276",
"294",
"270",
"283",
"298",
"285",
"301",
"324",
"273",
"267",
"312",
"290",
"282",
"299",
"283",
"320",
"293",
"270",
"291",
"279",
"282",
"265",
"266",
"264",
"289",
"273",
"289",
"274",
"299",
"315",
"305",
"279",
"277",
"285",
"294",
"279",
"301",
"237",
"310",
"281",
"274",
"270",
"260",
"275",
"265",
"290",
"290",
"260",
"249",
"271",
"290",
"242",
"278",
"236",
"276",
"262",
"257",
"303",
"281",
"249",
"263",
"274",
"265",
"271",
"290",
"243",
"291",
"268",
"275",
"269",
"313",
"268",
"281",
"274",
"274",
"235",
"255",
"251",
"276",
"260",
"263",
"250",
"252",
"240",
"269",
"269",
"249",
"265",
"262",
"265",
"267",
"261",
"261",
"235",
"243",
"269",
"264",
"269",
"236",
"253",
"228",
"243",
"226",
"260",
"241",
"246",
"253",
"243",
"245",
"276",
"260",
"248",
"241",
"236",
"234",
"235",
"242",
"256",
"236",
"215",
"266",
"213",
"267",
"234",
"242",
"231",
"250",
"251",
"238",
"226",
"249",
"259",
"234",
"225",
"241",
"231",
"252",
"223",
"237",
"210",
"221",
"248",
"236",
"231",
"266",
"278",
"228",
"262",
"229",
"229",
"245",
"206",
"246",
"217",
"250",
"234",
"226",
"221",
"250",
"209",
"256",
"234",
"262",
"213",
"240",
"235",
"211",
"212",
"203",
"235",
"222",
"226",
"253",
"226",
"223",
"206",
"236",
"213",
"240",
"226",
"228",
"217",
"213",
"231",
"233",
"224",
"221",
"204",
"218",
"206",
"239",
"243",
"209",
"238",
"223",
"200",
"255",
"215",
"208",
"217",
"209",
"237",
"243",
"219",
"212",
"219",
"215",
"210",
"197",
"191",
"196",
"219",
"221",
"208",
"218",
"199",
"235",
"226",
"240",
"207",
"199",
"205",
"211",
"214",
"195",
"213",
"213",
"225",
"211",
"207",
"223",
"223",
"237",
"195",
"229",
"218",
"210",
"222",
"243",
"204",
"222",
"252",
"198",
"226",
"213",
"205",
"210",
"182",
"208",
"178",
"213",
"184",
"195",
"194",
"183",
"204",
"205",
"178",
"235",
"209",
"171",
"203",
"210",
"206",
"173",
"194",
"197",
"181",
"193",
"226",
"209",
"187",
"200",
"234",
"185",
"180",
"218",
"194",
"211",
"162",
"212",
"222",
"209",
"227",
"204",
"192",
"221",
"201",
"212",
"200",
"185",
"218",
"224",
"179",
"228",
"211",
"228",
"172",
"260",
"203",
"214",
"186",
"225",
"199",
"212",
"231",
"233",
"226",
"224",
"206",
"209",
"205",
"263",
"206",
"251",
"209",
"262",
"255",
"243",
"226",
"237",
"239",
"271",
"268",
"247",
"264",
"303",
"298",
"310",
"306",
"359",
"313",
"344",
"335",
"382",
"382",
"379",
"415",
"446",
"501",
"537",
"544",
"634",
"602",
"724",
"704",
"849",
"842",
"900",
"961",
"1073",
"1077",
"1181",
"1159",
"1305",
"1340",
"1355",
"1315",
"1482",
"1395",
"1495",
"1497",
"1591",
"1391",
"1447",
"1314",
"1426",
"1277",
"1235",
"1171",
"1200",
"1047",
"1015",
"940",
"866",
"818",
"814",
"698",
"721",
"601",
"574",
"526",
"491",
"435",
"441",
"430",
"363",
"354",
"327",
"336",
"275",
"310",
"346",
"321",
"330",
"322",
"336",
"407",
"433",
"434",
"456",
"500",
"502",
"523",
"553",
"532",
"590",
"577",
"543",
"502",
"529",
"452",
"435",
"348",
"376",
"310",
"311",
"280",
"257",
"229",
"203",
"176",
"221",
"168",
"199",
"181",
"99771",
"Channel_info_start",
"Channel : Mg",
"Points : 0",
"Range : 0.000000 - 0.000000",
"Step : 0.010000",
"Channel_info_end",
"Channel_info_start",
"Channel : Al",
"Points : 0",
"Range : 0.000000 - 0.000000",
"Step : 0.010000",
"Channel_info_end",
"Channel_info_start",
"Channel : Si",
"Points : 0",
"Range : 0.000000 - 0.000000",
"Step : 0.010000",
"Channel_info_end",
"Channel_info_start",
"Channel : P ",
"Points : 0",
"Range : 0.000000 - 0.000000",
"Step : 0.010000",
"Channel_info_end",
"Channel_info_start",
"Channel : S ",
"Points : 0",
"Range : 0.000000 - 0.000000",
"Step : 0.010000",
"Channel_info_end",
"Channel_info_start",
"Channel : Cl",
"Points : 0",
"Range : 0.000000 - 0.000000",
"Step : 0.010000",
"Channel_info_end",
"Channel_info_start",
"Channel : K ",
"Points : 0",
"Range : 0.000000 - 0.000000",
"Step : 0.010000",
"Channel_info_end",
"Channel_info_start",
"Channel : Ca",
"Points : 0",
"Range : 0.000000 - 0.000000",
"Step : 0.010000",
"Channel_info_end",
"Channel_info_start",
"Channel : Ti",
"Points : 0",
"Range : 0.000000 - 0.000000",
"Step : 0.010000",
"Channel_info_end",
"Channel_info_start",
"Channel : V ",
"Points : 0",
"Range : 0.000000 - 0.000000",
"Step : 0.010000",
"Channel_info_end",
"Channel_info_start",
"Channel : Cr",
"Points : 0",
"Range : 0.000000 - 0.000000",
"Step : 0.010000",
"Channel_info_end",
"Channel_info_start",
"Channel : Mn",
"Points : 0",
"Range : 0.000000 - 0.000000",
"Step : 0.010000",
"Channel_info_end",
"Channel_info_start",
"Channel : Fe",
"Points : 0",
"Range : 0.000000 - 0.000000",
"Step : 0.010000",
"Channel_info_end",
"Channel_info_start",
"Channel : Cu",
"Points : 0",
"Range : 0.000000 - 0.000000",
"Step : 0.010000",
"Channel_info_end",
"Channel_info_start",
"Channel : Zn",
"Points : 0",
"Range : 0.000000 - 0.000000",
"Step : 0.010000",
"Channel_info_end",
"Channel_info_start",
"Channel : Sr",
"Points : 0",
"Range : 0.000000 - 0.000000",
"Step : 0.010000",
"Channel_info_end",
"Channel_info_start",
"Channel : Pb",
"Points : 0",
"Range : 0.000000 - 0.000000",
"Step : 0.010000",
"Channel_info_end",
"",
"Qualitative Result",
"--------------------------------------------------------------------------------",
"Element :  Mg, P , Ca, Zn, Ru",
"",
"Peak List",
"--------------------------------------------------------------------------------",
"Channel               Line        keV     Net Int.(cps/uA)",
"--------------------------------------------------------------------------------",
"Na                    MgKa         1.26     0.110",
"                      P Ka         2.01     0.011",
"                      CaKa         3.68     0.168",
"                      CaKb         4.02     0.021",
"                      ZnKa         8.63     0.019",
"                      RuKa        19.17     0.137",
"                      ----        19.48     0.051",
"                      ----        20.01     0.033",
"--------------------------------------------------------------------------------",
"",
"Quantitative Result",
"--------------------------------------------------------------------------------",
"Analyte               Result             Std.Dev. Proc.-Calc. Line Intensity(cps/uA)",
"--------------------------------------------------------------------------------",
"====[No. 1 Layer]====< Layer1               >===============================",
"Layer1                   0.000 ug/cm2    -------- Flux       -------- --------",