File: inputs/edxCalibration/edx_raw/2010-06/mg 31491.20100525201132.csv
"Sample    : mg 31491",
"Operator  : thiago",
"Comment  : cubatao-g-policarbonato",
"Group     : kerr2007ag180cal_lt",
"Date       : 2010-05-25 20:07:22",
"",
"Mesurement Condition",
"------------------------------------------------------------------------------------",
"Instrument : 700HS2   Atmosphere : Vac.   Collimator : 10(mm)   Spin : No",
"------------------------------------------------------------------------------------",
"Analyte               TG kV   uA      FI Acq.(keV)  Anal.(keV)  Time(sec)     DT(%)",
"------------------------------------------------------------------------------------",
"Na                    Rh 50  970-Auto Al  0 - 20    0.8 - 1.2   Live -  179   14",
"",
"<Profile>",
"Channel_info_start",
"Channel : Na",
"Points : 2048",
"Range : 0.000000 - 20.48",
"Step : 0.010000",
"Channel_info_end",
"0",
"0",
"0",
"0",
"0",
"0",
"0",
"0",
"0",
"0",
"0",
"0",
"0",
"0",
"2",
"23",
"41",
"37",
"48",
"35",
"35",
"45",
"38",
"40",
"48",
"32",
"36",
"44",
"33",
"33",
"37",
"37",
"39",
"33",
"33",
"42",
"30",
"49",
"33",
"40",
"32",
"27",
"45",
"35",
"43",
"45",
"37",
"35",
"41",
"42",
"42",
"42",
"43",
"48",
"41",
"52",
"51",
"35",
"45",
"83",
"120",
"165",
"195",
"202",
"162",
"127",
"92",
"71",
"44",
"49",
"37",
"40",
"43",
"41",
"35",
"39",
"51",
"37",
"37",
"40",
"39",
"50",
"70",
"71",
"86",
"118",
"126",
"130",
"143",
"109",
"118",
"95",
"81",
"60",
"92",
"100",
"145",
"192",
"233",
"324",
"325",
"323",
"292",
"200",
"136",
"78",
"63",
"52",
"37",
"46",
"46",
"49",
"54",
"30",
"27",
"45",
"35",
"29",
"33",
"38",
"39",
"29",
"45",
"22",
"30",
"28",
"25",
"25",
"32",
"32",
"31",
"37",
"41",
"53",
"45",
"50",
"53",
"55",
"39",
"53",
"62",
"45",
"60",
"48",
"52",
"48",
"45",
"38",
"48",
"36",
"31",
"35",
"36",
"32",
"32",
"38",
"44",
"39",
"50",
"58",
"62",
"53",
"63",
"53",
"43",
"48",
"51",
"53",
"55",
"41",
"63",
"73",
"76",
"58",
"83",
"97",
"134",
"234",
"372",
"675",
"1119",
"1741",
"2527",
"3270",
"3711",
"3601",
"3365",
"2496",
"1856",
"1154",
"646",
"372",
"245",
"177",
"180",
"203",
"258",
"329",
"402",
"446",
"523",
"491",
"502",
"371",
"335",
"207",
"177",
"125",
"109",
"82",
"76",
"86",
"82",
"92",
"97",
"106",
"121",
"133",
"120",
"152",
"125",
"151",
"163",
"150",
"163",
"189",
"160",
"184",
"182",
"204",
"199",
"178",
"201",
"195",
"168",
"175",
"182",
"168",
"154",
"160",
"147",
"152",
"149",
"137",
"146",
"127",
"134",
"152",
"141",
"133",
"124",
"118",
"133",
"114",
"134",
"138",
"137",
"127",
"138",
"126",
"143",
"135",
"130",
"135",
"133",
"159",
"170",
"155",
"165",
"180",
"187",
"157",
"186",
"178",
"180",
"168",
"168",
"207",
"213",
"178",
"187",
"195",
"207",
"174",
"179",
"204",
"195",
"181",
"179",
"201",
"195",
"222",
"206",
"198",
"196",
"213",
"215",
"228",
"216",
"206",
"235",
"214",
"230",
"206",
"234",
"207",
"243",
"239",
"244",
"248",
"268",
"255",
"252",
"289",
"265",
"252",
"273",
"301",
"301",
"310",
"316",
"304",
"309",
"294",
"294",
"289",
"280",
"288",
"279",
"300",
"274",
"277",
"322",
"303",
"260",
"334",
"321",
"321",
"353",
"314",
"287",
"275",
"336",
"282",
"326",
"314",
"336",
"297",
"298",
"283",
"325",
"340",
"355",
"348",
"355",
"325",
"331",
"328",
"361",
"366",
"349",
"335",
"328",
"340",
"313",
"324",
"307",
"304",
"322",
"309",
"271",
"307",
"304",
"310",
"310",
"296",
"307",
"304",
"312",
"294",
"314",
"326",
"314",
"327",
"269",
"314",
"322",
"318",
"328",
"330",
"324",
"340",
"334",
"353",
"354",
"388",
"409",
"414",
"438",
"519",
"541",
"624",
"774",
"802",
"884",
"1012",
"1098",
"1024",
"967",
"873",
"780",
"733",
"637",
"546",
"461",
"429",
"352",
"364",
"318",
"318",
"343",
"354",
"366",
"365",
"374",
"426",
"401",
"435",
"464",
"466",
"517",
"509",
"556",
"507",
"448",
"451",
"430",
"375",
"340",
"355",
"342",
"348",
"341",
"354",
"349",
"341",
"327",
"345",
"358",
"326",
"336",
"329",
"320",
"344",
"309",
"355",
"397",
"415",
"367",
"416",
"506",
"536",
"594",
"622",
"645",
"634",
"678",
"667",
"673",
"716",
"636",
"570",
"573",
"501",
"483",
"433",
"452",
"417",
"474",
"447",
"471",
"430",
"415",
"449",
"438",
"385",
"399",
"341",
"355",
"355",
"333",
"326",
"333",
"317",
"340",
"316",
"308",
"254",
"322",
"321",
"325",
"297",
"349",
"308",
"321",
"269",
"292",
"331",
"300",
"288",
"313",
"281",
"300",
"297",
"325",
"298",
"335",
"320",
"294",
"301",
"328",
"321",
"313",
"285",
"313",
"296",
"320",
"292",
"327",
"296",
"316",
"334",
"330",
"301",
"297",
"325",
"313",
"321",
"355",
"318",
"351",
"342",
"370",
"361",
"362",
"352",
"370",
"323",
"357",
"341",
"324",
"340",
"335",
"340",
"333",
"310",
"262",
"288",
"292",
"330",
"340",
"304",
"340",
"271",
"354",
"320",
"335",
"283",
"335",
"292",
"322",
"311",
"284",
"288",
"315",
"309",
"283",
"276",
"275",
"323",
"297",
"275",
"282",
"310",
"279",
"280",
"308",
"298",
"301",
"263",
"254",
"277",
"292",
"294",
"290",
"301",
"277",
"266",
"303",
"293",
"301",
"281",
"284",
"270",
"313",
"270",
"303",
"262",
"304",
"286",
"245",
"270",
"285",
"272",
"269",
"287",
"266",
"289",
"321",
"248",
"268",
"271",
"293",
"266",
"289",
"265",
"273",
"257",
"285",
"275",
"269",
"270",
"261",
"244",
"257",
"288",
"261",
"263",
"272",
"297",
"303",
"269",
"238",
"301",
"274",
"260",
"259",
"234",
"225",
"283",
"262",
"263",
"302",
"252",
"253",
"256",
"269",
"246",
"274",
"270",
"259",
"268",
"261",
"268",
"271",
"279",
"275",
"268",
"284",
"271",
"279",
"268",
"309",
"240",
"246",
"279",
"282",
"261",
"245",
"250",
"261",
"277",
"239",
"276",
"249",
"253",
"281",
"261",
"254",
"246",
"253",
"220",
"240",
"233",
"260",
"247",
"263",
"232",
"236",
"244",
"263",
"244",
"243",
"232",
"279",
"247",
"250",
"223",
"244",
"262",
"248",
"211",
"246",
"265",
"259",
"240",
"234",
"246",
"226",
"248",
"255",
"186",
"235",
"228",
"249",
"258",
"257",
"220",
"247",
"202",
"249",
"226",
"247",
"225",
"223",
"223",
"232",
"241",
"213",
"245",
"228",
"247",
"232",
"215",
"220",
"248",
"246",
"217",
"226",
"222",
"248",
"209",
"214",
"226",
"223",
"211",
"266",
"227",
"196",
"211",
"239",
"232",
"174",
"227",
"238",
"198",
"202",
"215",
"233",
"211",
"242",
"234",
"242",
"216",
"214",
"209",
"232",
"201",
"204",
"222",
"220",
"184",
"196",
"190",
"209",
"216",
"215",
"213",
"220",
"232",
"215",
"239",
"208",
"226",
"191",
"208",
"207",
"204",
"226",
"207",
"209",
"189",
"201",
"233",
"222",
"229",
"204",
"206",
"184",
"209",
"186",
"178",
"196",
"206",
"201",
"215",
"189",
"211",
"186",
"185",
"206",
"208",
"193",
"189",
"203",
"201",
"220",
"198",
"217",
"201",
"178",
"207",
"229",
"222",
"213",
"202",
"209",
"194",
"172",
"196",
"206",
"190",
"199",
"185",
"184",
"200",
"194",
"201",
"236",
"191",
"192",
"190",
"198",
"175",
"189",
"225",
"198",
"218",
"173",
"185",
"201",
"215",
"205",
"208",
"176",
"185",
"219",
"213",
"208",
"209",
"204",
"209",
"232",
"159",
"196",
"188",
"202",
"188",
"193",
"200",
"231",
"202",
"202",
"214",
"201",
"209",
"190",
"174",
"181",
"188",
"198",
"179",
"230",
"201",
"196",
"207",
"223",
"173",
"201",
"215",
"220",
"196",
"213",
"192",
"196",
"206",
"232",
"189",
"217",
"202",
"223",
"222",
"238",
"201",
"209",
"219",
"245",
"236",
"259",
"252",
"262",
"265",
"279",
"250",
"261",
"289",
"329",
"281",
"317",
"271",
"336",
"326",
"353",
"356",
"410",
"409",
"477",
"439",
"514",
"545",
"561",
"600",
"714",
"726",
"831",
"816",
"880",
"941",
"1013",
"1056",
"1222",
"1182",
"1290",
"1210",
"1350",
"1347",
"1347",
"1368",
"1396",
"1417",
"1557",
"1358",
"1447",
"1394",
"1412",
"1249",
"1260",
"1139",
"1160",
"1079",
"1038",
"914",
"899",
"753",
"781",
"700",
"694",
"592",
"493",
"477",
"493",
"449",
"411",
"355",
"372",
"339",
"369",
"309",
"300",
"328",
"364",
"262",
"341",
"290",
"360",
"353",
"391",
"409",
"463",
"469",
"507",
"511",
"552",
"558",
"588",
"524",
"570",
"472",
"521",
"460",
"418",
"371",
"363",
"296",
"290",
"230",
"270",
"235",
"207",
"189",
"215",
"190",
"187",
"188",
"97371",
"Channel_info_start",
"Channel : Mg",
"Points : 0",
"Range : 0.000000 - 0.000000",
"Step : 0.010000",
"Channel_info_end",
"Channel_info_start",
"Channel : Al",
"Points : 0",
"Range : 0.000000 - 0.000000",
"Step : 0.010000",
"Channel_info_end",
"Channel_info_start",
"Channel : Si",
"Points : 0",
"Range : 0.000000 - 0.000000",
"Step : 0.010000",
"Channel_info_end",
"Channel_info_start",
"Channel : P ",
"Points : 0",
"Range : 0.000000 - 0.000000",
"Step : 0.010000",
"Channel_info_end",
"Channel_info_start",
"Channel : S ",
"Points : 0",
"Range : 0.000000 - 0.000000",
"Step : 0.010000",
"Channel_info_end",
"Channel_info_start",
"Channel : Cl",
"Points : 0",
"Range : 0.000000 - 0.000000",
"Step : 0.010000",
"Channel_info_end",
"Channel_info_start",
"Channel : K ",
"Points : 0",
"Range : 0.000000 - 0.000000",
"Step : 0.010000",
"Channel_info_end",
"Channel_info_start",
"Channel : Ca",
"Points : 0",
"Range : 0.000000 - 0.000000",
"Step : 0.010000",
"Channel_info_end",
"Channel_info_start",
"Channel : Ti",
"Points : 0",
"Range : 0.000000 - 0.000000",
"Step : 0.010000",
"Channel_info_end",
"Channel_info_start",
"Channel : V ",
"Points : 0",
"Range : 0.000000 - 0.000000",
"Step : 0.010000",
"Channel_info_end",
"Channel_info_start",
"Channel : Cr",
"Points : 0",
"Range : 0.000000 - 0.000000",
"Step : 0.010000",
"Channel_info_end",
"Channel_info_start",
"Channel : Mn",
"Points : 0",
"Range : 0.000000 - 0.000000",
"Step : 0.010000",
"Channel_info_end",
"Channel_info_start",
"Channel : Fe",
"Points : 0",
"Range : 0.000000 - 0.000000",
"Step : 0.010000",
"Channel_info_end",
"Channel_info_start",
"Channel : Cu",
"Points : 0",
"Range : 0.000000 - 0.000000",
"Step : 0.010000",
"Channel_info_end",
"Channel_info_start",
"Channel : Zn",
"Points : 0",
"Range : 0.000000 - 0.000000",
"Step : 0.010000",
"Channel_info_end",
"Channel_info_start",
"Channel : Sr",
"Points : 0",
"Range : 0.000000 - 0.000000",
"Step : 0.010000",
"Channel_info_end",
"Channel_info_start",
"Channel : Pb",
"Points : 0",
"Range : 0.000000 - 0.000000",
"Step : 0.010000",
"Channel_info_end",
"",
"Qualitative Result",
"--------------------------------------------------------------------------------",
"Element :  Mg, Si, P , Ca, Zn, Ru",
"",
"Peak List",
"--------------------------------------------------------------------------------",
"Channel               Line        keV     Net Int.(cps/uA)",
"--------------------------------------------------------------------------------",
"Na                    MgKa         1.26     0.011",
"                      SiKa         1.74     0.007",
"                      P Ka         2.00     0.022",
"                      CaKa         3.68     0.296",
"                      CaKb         4.00     0.036",
"                      ----         4.58     0.009",
"                      ----         8.12     0.074",
"                      ZnKa         8.63     0.018",
"                      ----         9.35     0.037",
"                      ZnKb         9.60     0.014",
"                      RuKa        19.20     0.135",
"                      ----        19.48     0.047",
"--------------------------------------------------------------------------------",
"",
"Quantitative Result",
"--------------------------------------------------------------------------------",
"Analyte               Result             Std.Dev. Proc.-Calc. Line Intensity(cps/uA)",
"--------------------------------------------------------------------------------",
"====[No. 1 Layer]====< Layer1               >===============================",
"Layer1                   0.000 ug/cm2    -------- Flux       -------- --------",