File: inputs/edxCalibration/edx_raw/2010-06/MoO3 15764.20100626140033.csv
"Sample    : MoO3 15764",
"Operator  : thiago",
"Comment  : cubatao-g-policarbonato",
"Group     : kerr2007ag180cal_lt",
"Date       : 2010-06-26 13:54:34",
"",
"Mesurement Condition",
"------------------------------------------------------------------------------------",
"Instrument : 700HS2   Atmosphere : Vac.   Collimator : 10(mm)   Spin : No",
"------------------------------------------------------------------------------------",
"Analyte               TG kV   uA      FI Acq.(keV)  Anal.(keV)  Time(sec)     DT(%)",
"------------------------------------------------------------------------------------",
"Na                    Rh 50  210-Auto Al  0 - 20    0.8 - 1.2   Live -  179   14",
"",
"<Profile>",
"Channel_info_start",
"Channel : Na",
"Points : 2048",
"Range : 0.000000 - 20.48",
"Step : 0.010000",
"Channel_info_end",
"0",
"0",
"0",
"0",
"0",
"0",
"0",
"0",
"0",
"0",
"0",
"0",
"0",
"0",
"0",
"17",
"39",
"30",
"42",
"29",
"34",
"43",
"39",
"43",
"52",
"63",
"83",
"84",
"82",
"75",
"66",
"68",
"58",
"77",
"51",
"51",
"69",
"62",
"47",
"45",
"41",
"39",
"37",
"66",
"40",
"44",
"49",
"48",
"34",
"59",
"55",
"65",
"48",
"47",
"47",
"47",
"53",
"49",
"43",
"37",
"39",
"43",
"44",
"44",
"33",
"37",
"41",
"30",
"25",
"33",
"37",
"43",
"31",
"44",
"45",
"32",
"22",
"30",
"28",
"29",
"25",
"27",
"32",
"38",
"48",
"30",
"27",
"30",
"44",
"52",
"46",
"55",
"57",
"47",
"71",
"77",
"84",
"104",
"175",
"183",
"247",
"265",
"254",
"242",
"193",
"180",
"157",
"222",
"207",
"279",
"441",
"801",
"1341",
"1954",
"2643",
"2632",
"2632",
"2188",
"1986",
"1736",
"1609",
"1317",
"1139",
"893",
"730",
"538",
"428",
"287",
"221",
"142",
"114",
"113",
"84",
"73",
"48",
"58",
"38",
"33",
"45",
"76",
"75",
"60",
"79",
"55",
"68",
"53",
"33",
"22",
"24",
"23",
"23",
"25",
"17",
"19",
"22",
"19",
"27",
"17",
"22",
"23",
"29",
"19",
"17",
"24",
"18",
"22",
"16",
"20",
"22",
"25",
"18",
"20",
"29",
"12",
"26",
"27",
"47",
"42",
"79",
"108",
"164",
"217",
"302",
"365",
"427",
"470",
"423",
"317",
"232",
"157",
"113",
"74",
"61",
"47",
"33",
"32",
"28",
"42",
"62",
"70",
"76",
"77",
"85",
"66",
"69",
"44",
"47",
"48",
"32",
"22",
"28",
"40",
"36",
"45",
"30",
"31",
"41",
"32",
"38",
"41",
"44",
"39",
"40",
"42",
"47",
"53",
"51",
"44",
"42",
"42",
"58",
"53",
"69",
"47",
"52",
"48",
"41",
"52",
"46",
"51",
"47",
"51",
"52",
"30",
"39",
"42",
"37",
"55",
"38",
"39",
"45",
"40",
"43",
"39",
"49",
"54",
"36",
"31",
"41",
"36",
"39",
"44",
"51",
"49",
"43",
"38",
"43",
"45",
"53",
"47",
"49",
"46",
"43",
"33",
"57",
"53",
"47",
"36",
"51",
"61",
"59",
"47",
"61",
"54",
"49",
"59",
"60",
"53",
"59",
"58",
"63",
"63",
"63",
"49",
"51",
"61",
"48",
"75",
"68",
"61",
"80",
"69",
"65",
"61",
"62",
"59",
"66",
"71",
"70",
"56",
"65",
"75",
"71",
"63",
"100",
"71",
"91",
"77",
"90",
"88",
"102",
"85",
"93",
"66",
"68",
"71",
"75",
"89",
"88",
"85",
"71",
"85",
"82",
"73",
"88",
"77",
"82",
"90",
"60",
"95",
"87",
"88",
"81",
"76",
"73",
"95",
"87",
"98",
"72",
"82",
"85",
"93",
"75",
"98",
"88",
"93",
"86",
"84",
"98",
"84",
"95",
"90",
"80",
"96",
"89",
"86",
"87",
"73",
"94",
"95",
"99",
"76",
"81",
"83",
"99",
"100",
"87",
"81",
"95",
"88",
"83",
"94",
"73",
"91",
"68",
"74",
"97",
"80",
"91",
"88",
"102",
"81",
"79",
"100",
"93",
"91",
"68",
"93",
"116",
"95",
"111",
"116",
"109",
"132",
"119",
"103",
"98",
"89",
"83",
"99",
"88",
"81",
"80",
"77",
"104",
"96",
"89",
"83",
"98",
"58",
"90",
"97",
"99",
"116",
"112",
"89",
"112",
"105",
"128",
"115",
"114",
"116",
"128",
"116",
"114",
"110",
"109",
"108",
"107",
"81",
"88",
"86",
"89",
"84",
"88",
"74",
"88",
"87",
"98",
"86",
"94",
"98",
"73",
"76",
"91",
"63",
"97",
"107",
"89",
"69",
"97",
"89",
"81",
"68",
"88",
"87",
"83",
"76",
"94",
"71",
"61",
"110",
"97",
"75",
"83",
"74",
"96",
"79",
"87",
"96",
"87",
"84",
"101",
"73",
"88",
"96",
"86",
"68",
"77",
"71",
"100",
"82",
"85",
"96",
"91",
"70",
"67",
"79",
"82",
"74",
"86",
"80",
"73",
"68",
"93",
"83",
"85",
"80",
"97",
"89",
"79",
"75",
"73",
"88",
"85",
"80",
"76",
"70",
"94",
"89",
"81",
"86",
"85",
"70",
"66",
"95",
"74",
"84",
"72",
"61",
"60",
"75",
"77",
"68",
"80",
"94",
"74",
"76",
"76",
"95",
"67",
"83",
"87",
"88",
"81",
"85",
"84",
"86",
"73",
"95",
"87",
"59",
"70",
"77",
"74",
"79",
"86",
"70",
"84",
"79",
"81",
"71",
"74",
"79",
"65",
"67",
"85",
"80",
"97",
"68",
"67",
"84",
"98",
"88",
"77",
"75",
"66",
"70",
"79",
"73",
"71",
"71",
"73",
"72",
"82",
"75",
"84",
"71",
"82",
"83",
"76",
"69",
"83",
"81",
"68",
"65",
"82",
"76",
"79",
"76",
"69",
"75",
"83",
"66",
"68",
"81",
"74",
"70",
"80",
"86",
"73",
"76",
"66",
"71",
"70",
"51",
"69",
"58",
"62",
"70",
"68",
"65",
"67",
"86",
"75",
"67",
"56",
"56",
"77",
"57",
"81",
"63",
"58",
"72",
"56",
"68",
"75",
"75",
"65",
"77",
"67",
"54",
"65",
"54",
"66",
"79",
"69",
"66",
"76",
"70",
"74",
"69",
"65",
"66",
"62",
"61",
"66",
"56",
"74",
"51",
"74",
"61",
"73",
"60",
"57",
"56",
"70",
"76",
"69",
"65",
"74",
"71",
"91",
"48",
"69",
"67",
"61",
"59",
"56",
"62",
"69",
"74",
"79",
"60",
"87",
"60",
"60",
"49",
"65",
"65",
"60",
"73",
"74",
"68",
"55",
"67",
"69",
"66",
"74",
"54",
"66",
"60",
"74",
"76",
"51",
"62",
"61",
"58",
"71",
"66",
"68",
"73",
"56",
"81",
"52",
"71",
"56",
"52",
"63",
"49",
"72",
"77",
"69",
"47",
"61",
"66",
"58",
"66",
"56",
"67",
"66",
"63",
"62",
"57",
"60",
"49",
"65",
"63",
"71",
"49",
"58",
"58",
"66",
"57",
"48",
"66",
"54",
"63",
"57",
"60",
"51",
"60",
"61",
"57",
"65",
"53",
"56",
"60",
"56",
"46",
"57",
"69",
"61",
"60",
"71",
"51",
"55",
"65",
"72",
"74",
"55",
"51",
"57",
"54",
"69",
"56",
"62",
"56",
"62",
"58",
"66",
"67",
"68",
"65",
"63",
"61",
"66",
"65",
"61",
"54",
"81",
"65",
"69",
"70",
"75",
"57",
"60",
"71",
"66",
"75",
"87",
"53",
"43",
"65",
"43",
"61",
"75",
"61",
"62",
"60",
"76",
"69",
"65",
"69",
"67",
"66",
"62",
"69",
"69",
"71",
"53",
"75",
"72",
"53",
"72",
"82",
"74",
"65",
"86",
"77",
"70",
"76",
"89",
"66",
"89",
"75",
"95",
"93",
"79",
"93",
"87",
"82",
"105",
"88",
"108",
"95",
"114",
"111",
"126",
"118",
"142",
"146",
"182",
"226",
"324",
"446",
"622",
"814",
"1199",
"1507",
"2181",
"2750",
"3647",
"4457",
"5841",
"6488",
"7890",
"8825",
"10197",
"10531",
"11618",
"11742",
"12180",
"11664",
"11539",
"10456",
"9728",
"8465",
"7676",
"6340",
"5626",
"4054",
"3254",
"2332",
"1775",
"1281",
"863",
"542",
"368",
"285",
"205",
"110",
"96",
"93",
"79",
"80",
"88",
"75",
"71",
"57",
"54",
"60",
"83",
"58",
"67",
"73",
"58",
"73",
"72",
"39",
"80",
"67",
"77",
"57",
"62",
"73",
"73",
"62",
"63",
"71",
"89",
"82",
"86",
"87",
"85",
"69",
"91",
"86",
"99",
"84",
"79",
"88",
"87",
"71",
"96",
"113",
"93",
"125",
"136",
"125",
"148",
"128",
"148",
"185",
"181",
"193",
"190",
"226",
"224",
"226",
"269",
"264",
"299",
"281",
"285",
"296",
"341",
"360",
"344",
"359",
"373",
"364",
"382",
"368",
"380",
"402",
"459",
"523",
"671",
"684",
"895",
"1052",
"1199",
"1353",
"1663",
"1692",
"2008",
"1943",
"2117",
"2140",
"2157",
"1935",
"2003",
"1724",
"1715",
"1360",
"1293",
"1048",
"932",
"779",
"664",
"588",
"597",
"489",
"519",
"501",
"512",
"458",
"441",
"401",
"417",
"372",
"329",
"287",
"282",
"221",
"190",
"185",
"172",
"155",
"134",
"128",
"118",
"82",
"63",
"73",
"61",
"43",
"63",
"43",
"41",
"39",
"31",
"41",
"22361",
"Channel_info_start",
"Channel : Mg",
"Points : 0",
"Range : 0.000000 - 0.000000",
"Step : 0.010000",
"Channel_info_end",
"Channel_info_start",
"Channel : Al",
"Points : 0",
"Range : 0.000000 - 0.000000",
"Step : 0.010000",
"Channel_info_end",
"Channel_info_start",
"Channel : Si",
"Points : 0",
"Range : 0.000000 - 0.000000",
"Step : 0.010000",
"Channel_info_end",
"Channel_info_start",
"Channel : P ",
"Points : 0",
"Range : 0.000000 - 0.000000",
"Step : 0.010000",
"Channel_info_end",
"Channel_info_start",
"Channel : S ",
"Points : 0",
"Range : 0.000000 - 0.000000",
"Step : 0.010000",
"Channel_info_end",
"Channel_info_start",
"Channel : Cl",
"Points : 0",
"Range : 0.000000 - 0.000000",
"Step : 0.010000",
"Channel_info_end",
"Channel_info_start",
"Channel : K ",
"Points : 0",
"Range : 0.000000 - 0.000000",
"Step : 0.010000",
"Channel_info_end",
"Channel_info_start",
"Channel : Ca",
"Points : 0",
"Range : 0.000000 - 0.000000",
"Step : 0.010000",
"Channel_info_end",
"Channel_info_start",
"Channel : Ti",
"Points : 0",
"Range : 0.000000 - 0.000000",
"Step : 0.010000",
"Channel_info_end",
"Channel_info_start",
"Channel : V ",
"Points : 0",
"Range : 0.000000 - 0.000000",
"Step : 0.010000",
"Channel_info_end",
"Channel_info_start",
"Channel : Cr",
"Points : 0",
"Range : 0.000000 - 0.000000",
"Step : 0.010000",
"Channel_info_end",
"Channel_info_start",
"Channel : Mn",
"Points : 0",
"Range : 0.000000 - 0.000000",
"Step : 0.010000",
"Channel_info_end",
"Channel_info_start",
"Channel : Fe",
"Points : 0",
"Range : 0.000000 - 0.000000",
"Step : 0.010000",
"Channel_info_end",
"Channel_info_start",
"Channel : Cu",
"Points : 0",
"Range : 0.000000 - 0.000000",
"Step : 0.010000",
"Channel_info_end",
"Channel_info_start",
"Channel : Zn",
"Points : 0",
"Range : 0.000000 - 0.000000",
"Step : 0.010000",
"Channel_info_end",
"Channel_info_start",
"Channel : Sr",
"Points : 0",
"Range : 0.000000 - 0.000000",
"Step : 0.010000",
"Channel_info_end",
"Channel_info_start",
"Channel : Pb",
"Points : 0",
"Range : 0.000000 - 0.000000",
"Step : 0.010000",
"Channel_info_end",
"",
"Qualitative Result",
"--------------------------------------------------------------------------------",
"Element :  P , Mo, Ca",
"",
"Peak List",
"--------------------------------------------------------------------------------",
"Channel               Line        keV     Net Int.(cps/uA)",
"--------------------------------------------------------------------------------",
"Na                    ----         0.55     0.012",
"                      P Ka         2.02     0.061",
"                      MoLa         2.30     0.859",
"                      ----         2.43     0.394",
"                      CaKa         3.70     0.163",
"                      CaKb         4.00     0.020",
"                      MoKa        17.44     6.931",
"                      MoKb        19.57     1.109",
"                      ----        19.91     0.165",
"--------------------------------------------------------------------------------",
"",
"Quantitative Result",
"--------------------------------------------------------------------------------",
"Analyte               Result             Std.Dev. Proc.-Calc. Line Intensity(cps/uA)",
"--------------------------------------------------------------------------------",
"====[No. 1 Layer]====< Layer1               >===============================",
"Layer1                   0.000 ug/cm2    -------- Flux       -------- --------",