File: inputs/edxCalibration/edx_raw/2010-06/MoO3 31507.20100611022704.csv
"Sample    : MoO3 31507",
"Operator  : Luís",
"Comment  : cubatao-g-policarbonato",
"Group     : kerr2007ag180cal_lt",
"Date       : 2010-06-11 02:23:01",
"",
"Mesurement Condition",
"------------------------------------------------------------------------------------",
"Instrument : 700HS2   Atmosphere : Vac.   Collimator : 10(mm)   Spin : No",
"------------------------------------------------------------------------------------",
"Analyte               TG kV   uA      FI Acq.(keV)  Anal.(keV)  Time(sec)     DT(%)",
"------------------------------------------------------------------------------------",
"Na                    Rh 50  210-Auto Al  0 - 20    0.8 - 1.2   Live -  180   14",
"",
"<Profile>",
"Channel_info_start",
"Channel : Na",
"Points : 2048",
"Range : 0.000000 - 20.48",
"Step : 0.010000",
"Channel_info_end",
"0",
"0",
"0",
"0",
"0",
"0",
"0",
"0",
"0",
"0",
"0",
"0",
"0",
"0",
"0",
"9",
"51",
"27",
"51",
"51",
"50",
"37",
"38",
"28",
"45",
"51",
"52",
"65",
"72",
"66",
"56",
"60",
"55",
"59",
"51",
"60",
"61",
"61",
"58",
"39",
"45",
"37",
"33",
"38",
"52",
"53",
"49",
"42",
"58",
"41",
"43",
"36",
"44",
"43",
"43",
"49",
"47",
"44",
"41",
"44",
"40",
"34",
"40",
"31",
"32",
"47",
"25",
"36",
"31",
"32",
"40",
"33",
"42",
"27",
"38",
"40",
"30",
"41",
"25",
"25",
"25",
"23",
"28",
"29",
"33",
"34",
"33",
"30",
"45",
"41",
"37",
"34",
"25",
"46",
"68",
"57",
"78",
"107",
"156",
"181",
"199",
"226",
"200",
"183",
"155",
"143",
"146",
"151",
"164",
"244",
"358",
"619",
"1098",
"1524",
"1872",
"2063",
"2034",
"1713",
"1552",
"1310",
"1276",
"1020",
"889",
"714",
"556",
"401",
"305",
"223",
"156",
"126",
"110",
"95",
"94",
"67",
"60",
"50",
"41",
"38",
"37",
"52",
"42",
"69",
"68",
"56",
"49",
"46",
"42",
"43",
"30",
"26",
"32",
"20",
"19",
"25",
"23",
"19",
"24",
"20",
"20",
"23",
"32",
"15",
"12",
"23",
"16",
"27",
"23",
"16",
"26",
"27",
"26",
"29",
"26",
"37",
"23",
"32",
"43",
"49",
"96",
"140",
"234",
"405",
"594",
"702",
"818",
"822",
"755",
"586",
"390",
"245",
"135",
"94",
"71",
"60",
"58",
"59",
"68",
"79",
"99",
"114",
"106",
"143",
"100",
"101",
"65",
"51",
"47",
"37",
"33",
"38",
"27",
"33",
"29",
"36",
"31",
"38",
"31",
"38",
"52",
"47",
"41",
"40",
"38",
"52",
"49",
"47",
"66",
"50",
"47",
"65",
"47",
"58",
"45",
"46",
"56",
"53",
"51",
"56",
"51",
"43",
"55",
"40",
"53",
"49",
"39",
"39",
"51",
"32",
"37",
"42",
"47",
"54",
"38",
"33",
"44",
"40",
"37",
"42",
"50",
"50",
"47",
"59",
"41",
"59",
"59",
"55",
"49",
"49",
"68",
"43",
"74",
"50",
"57",
"57",
"44",
"52",
"39",
"54",
"54",
"59",
"64",
"47",
"54",
"65",
"43",
"56",
"46",
"60",
"56",
"70",
"57",
"56",
"59",
"58",
"56",
"50",
"66",
"88",
"66",
"71",
"79",
"63",
"80",
"68",
"72",
"73",
"79",
"65",
"75",
"84",
"85",
"73",
"82",
"78",
"85",
"77",
"91",
"95",
"92",
"89",
"99",
"72",
"78",
"94",
"101",
"86",
"86",
"80",
"83",
"81",
"74",
"78",
"93",
"94",
"83",
"85",
"75",
"86",
"94",
"97",
"85",
"86",
"93",
"75",
"83",
"82",
"88",
"85",
"95",
"95",
"83",
"96",
"89",
"83",
"96",
"84",
"106",
"84",
"92",
"89",
"82",
"85",
"94",
"64",
"94",
"72",
"73",
"96",
"77",
"77",
"86",
"91",
"99",
"87",
"87",
"85",
"68",
"78",
"91",
"84",
"113",
"87",
"83",
"79",
"74",
"70",
"91",
"99",
"108",
"91",
"85",
"106",
"108",
"119",
"82",
"101",
"94",
"105",
"126",
"101",
"114",
"102",
"133",
"144",
"97",
"91",
"101",
"110",
"85",
"92",
"68",
"96",
"88",
"71",
"82",
"85",
"99",
"120",
"81",
"78",
"95",
"100",
"102",
"110",
"79",
"96",
"114",
"120",
"117",
"135",
"135",
"115",
"137",
"141",
"140",
"111",
"114",
"117",
"97",
"97",
"109",
"87",
"91",
"88",
"84",
"77",
"91",
"73",
"91",
"74",
"87",
"89",
"92",
"66",
"99",
"98",
"89",
"77",
"93",
"74",
"100",
"95",
"85",
"97",
"87",
"86",
"82",
"67",
"88",
"92",
"86",
"91",
"101",
"97",
"96",
"87",
"68",
"98",
"88",
"101",
"95",
"99",
"98",
"99",
"94",
"79",
"103",
"106",
"74",
"83",
"64",
"79",
"92",
"79",
"86",
"117",
"97",
"78",
"89",
"92",
"85",
"84",
"73",
"78",
"94",
"97",
"89",
"75",
"96",
"82",
"81",
"81",
"96",
"87",
"97",
"92",
"82",
"88",
"69",
"70",
"75",
"85",
"73",
"70",
"79",
"85",
"83",
"88",
"69",
"72",
"82",
"81",
"87",
"58",
"86",
"94",
"92",
"70",
"85",
"93",
"85",
"92",
"78",
"88",
"89",
"80",
"96",
"68",
"100",
"88",
"95",
"82",
"86",
"78",
"83",
"66",
"85",
"82",
"79",
"79",
"82",
"87",
"78",
"68",
"93",
"58",
"74",
"71",
"74",
"71",
"86",
"64",
"84",
"75",
"70",
"73",
"72",
"74",
"85",
"77",
"86",
"103",
"74",
"55",
"85",
"73",
"63",
"74",
"70",
"92",
"77",
"84",
"70",
"52",
"74",
"87",
"79",
"72",
"78",
"75",
"92",
"67",
"79",
"73",
"69",
"64",
"81",
"72",
"86",
"83",
"68",
"89",
"70",
"72",
"85",
"71",
"85",
"92",
"77",
"73",
"81",
"80",
"75",
"71",
"84",
"65",
"77",
"69",
"59",
"68",
"77",
"89",
"67",
"72",
"72",
"77",
"71",
"84",
"87",
"54",
"79",
"68",
"72",
"79",
"80",
"71",
"75",
"61",
"66",
"64",
"58",
"71",
"69",
"66",
"68",
"86",
"65",
"56",
"72",
"67",
"56",
"52",
"85",
"65",
"58",
"71",
"75",
"77",
"83",
"78",
"74",
"60",
"65",
"75",
"63",
"54",
"72",
"71",
"68",
"58",
"73",
"78",
"68",
"71",
"68",
"68",
"73",
"52",
"77",
"69",
"72",
"63",
"67",
"61",
"73",
"67",
"60",
"56",
"73",
"52",
"65",
"83",
"68",
"65",
"83",
"63",
"78",
"67",
"74",
"67",
"83",
"69",
"68",
"77",
"87",
"68",
"60",
"69",
"73",
"64",
"55",
"66",
"66",
"53",
"56",
"68",
"77",
"55",
"67",
"57",
"59",
"59",
"63",
"55",
"64",
"57",
"78",
"58",
"63",
"64",
"59",
"47",
"55",
"50",
"84",
"63",
"51",
"63",
"72",
"67",
"69",
"67",
"61",
"37",
"53",
"58",
"66",
"74",
"55",
"50",
"68",
"60",
"60",
"61",
"67",
"55",
"63",
"60",
"63",
"53",
"60",
"54",
"72",
"80",
"69",
"55",
"68",
"65",
"57",
"87",
"58",
"52",
"65",
"65",
"59",
"61",
"79",
"66",
"59",
"69",
"65",
"70",
"52",
"67",
"55",
"49",
"59",
"52",
"66",
"68",
"73",
"64",
"60",
"70",
"77",
"71",
"79",
"52",
"54",
"72",
"78",
"58",
"69",
"57",
"51",
"73",
"60",
"77",
"72",
"82",
"63",
"61",
"58",
"79",
"81",
"49",
"102",
"77",
"91",
"82",
"80",
"71",
"88",
"81",
"83",
"78",
"89",
"97",
"87",
"68",
"86",
"93",
"97",
"102",
"109",
"97",
"106",
"121",
"126",
"134",
"136",
"174",
"212",
"297",
"423",
"556",
"760",
"1123",
"1470",
"2089",
"2869",
"3584",
"4486",
"5600",
"7188",
"7725",
"9363",
"10084",
"11473",
"11540",
"12636",
"12314",
"12607",
"11470",
"11363",
"9957",
"9362",
"7823",
"6688",
"5416",
"4702",
"3329",
"2599",
"1843",
"1371",
"885",
"637",
"364",
"282",
"209",
"177",
"91",
"83",
"69",
"83",
"85",
"68",
"56",
"77",
"65",
"63",
"60",
"72",
"72",
"71",
"53",
"66",
"66",
"74",
"53",
"66",
"54",
"58",
"56",
"70",
"67",
"78",
"64",
"73",
"65",
"71",
"74",
"61",
"73",
"84",
"80",
"93",
"70",
"89",
"92",
"127",
"86",
"97",
"120",
"103",
"120",
"130",
"125",
"134",
"149",
"148",
"157",
"160",
"176",
"183",
"206",
"207",
"227",
"222",
"257",
"255",
"274",
"314",
"294",
"332",
"341",
"357",
"362",
"348",
"341",
"392",
"374",
"348",
"420",
"452",
"475",
"556",
"589",
"786",
"887",
"1012",
"1217",
"1476",
"1610",
"1835",
"1921",
"2130",
"2134",
"2260",
"2162",
"2229",
"1967",
"1928",
"1724",
"1546",
"1297",
"1104",
"924",
"841",
"698",
"621",
"565",
"557",
"471",
"512",
"471",
"466",
"419",
"441",
"406",
"376",
"384",
"363",
"283",
"239",
"223",
"213",
"182",
"157",
"138",
"106",
"94",
"85",
"80",
"83",
"65",
"57",
"54",
"56",
"44",
"32",
"33",
"40",
"49",
"23293",
"Channel_info_start",
"Channel : Mg",
"Points : 0",
"Range : 0.000000 - 0.000000",
"Step : 0.010000",
"Channel_info_end",
"Channel_info_start",
"Channel : Al",
"Points : 0",
"Range : 0.000000 - 0.000000",
"Step : 0.010000",
"Channel_info_end",
"Channel_info_start",
"Channel : Si",
"Points : 0",
"Range : 0.000000 - 0.000000",
"Step : 0.010000",
"Channel_info_end",
"Channel_info_start",
"Channel : P ",
"Points : 0",
"Range : 0.000000 - 0.000000",
"Step : 0.010000",
"Channel_info_end",
"Channel_info_start",
"Channel : S ",
"Points : 0",
"Range : 0.000000 - 0.000000",
"Step : 0.010000",
"Channel_info_end",
"Channel_info_start",
"Channel : Cl",
"Points : 0",
"Range : 0.000000 - 0.000000",
"Step : 0.010000",
"Channel_info_end",
"Channel_info_start",
"Channel : K ",
"Points : 0",
"Range : 0.000000 - 0.000000",
"Step : 0.010000",
"Channel_info_end",
"Channel_info_start",
"Channel : Ca",
"Points : 0",
"Range : 0.000000 - 0.000000",
"Step : 0.010000",
"Channel_info_end",
"Channel_info_start",
"Channel : Ti",
"Points : 0",
"Range : 0.000000 - 0.000000",
"Step : 0.010000",
"Channel_info_end",
"Channel_info_start",
"Channel : V ",
"Points : 0",
"Range : 0.000000 - 0.000000",
"Step : 0.010000",
"Channel_info_end",
"Channel_info_start",
"Channel : Cr",
"Points : 0",
"Range : 0.000000 - 0.000000",
"Step : 0.010000",
"Channel_info_end",
"Channel_info_start",
"Channel : Mn",
"Points : 0",
"Range : 0.000000 - 0.000000",
"Step : 0.010000",
"Channel_info_end",
"Channel_info_start",
"Channel : Fe",
"Points : 0",
"Range : 0.000000 - 0.000000",
"Step : 0.010000",
"Channel_info_end",
"Channel_info_start",
"Channel : Cu",
"Points : 0",
"Range : 0.000000 - 0.000000",
"Step : 0.010000",
"Channel_info_end",
"Channel_info_start",
"Channel : Zn",
"Points : 0",
"Range : 0.000000 - 0.000000",
"Step : 0.010000",
"Channel_info_end",
"Channel_info_start",
"Channel : Sr",
"Points : 0",
"Range : 0.000000 - 0.000000",
"Step : 0.010000",
"Channel_info_end",
"Channel_info_start",
"Channel : Pb",
"Points : 0",
"Range : 0.000000 - 0.000000",
"Step : 0.010000",
"Channel_info_end",
"",
"Qualitative Result",
"--------------------------------------------------------------------------------",
"Element :  P , Mo, Ca",
"",
"Peak List",
"--------------------------------------------------------------------------------",
"Channel               Line        keV     Net Int.(cps/uA)",
"--------------------------------------------------------------------------------",
"Na                    P Ka         2.02     0.055",
"                      MoLa         2.30     0.664",
"                      ----         2.43     0.288",
"                      CaKa         3.70     0.304",
"                      CaKb         4.02     0.042",
"                      MoKa        17.43     7.170",
"                      MoKb        19.57     1.200",
"                      ----        20.01     0.114",
"--------------------------------------------------------------------------------",
"",
"Quantitative Result",
"--------------------------------------------------------------------------------",
"Analyte               Result             Std.Dev. Proc.-Calc. Line Intensity(cps/uA)",
"--------------------------------------------------------------------------------",
"====[No. 1 Layer]====< Layer1               >===============================",
"Layer1                   0.000 ug/cm2    -------- Flux       -------- --------",