File: inputs/edxCalibration/edx_raw/2010-06/MoO3 31507.20100525234940.csv
"Sample    : MoO3 31507",
"Operator  : luisf",
"Comment  : cubatao-g-policarbonato",
"Group     : kerr2007ag180cal_lt",
"Date       : 2010-05-25 23:45:36",
"",
"Mesurement Condition",
"------------------------------------------------------------------------------------",
"Instrument : 700HS2   Atmosphere : Vac.   Collimator : 10(mm)   Spin : No",
"------------------------------------------------------------------------------------",
"Analyte               TG kV   uA      FI Acq.(keV)  Anal.(keV)  Time(sec)     DT(%)",
"------------------------------------------------------------------------------------",
"Na                    Rh 50  210-Auto Al  0 - 20    0.8 - 1.2   Live -  179   14",
"",
"<Profile>",
"Channel_info_start",
"Channel : Na",
"Points : 2048",
"Range : 0.000000 - 20.48",
"Step : 0.010000",
"Channel_info_end",
"0",
"0",
"0",
"0",
"0",
"0",
"0",
"0",
"0",
"0",
"0",
"0",
"0",
"0",
"0",
"9",
"40",
"29",
"36",
"37",
"46",
"39",
"39",
"44",
"42",
"50",
"73",
"68",
"66",
"93",
"53",
"52",
"66",
"61",
"62",
"48",
"71",
"50",
"42",
"44",
"38",
"43",
"44",
"37",
"42",
"46",
"37",
"43",
"50",
"50",
"61",
"45",
"53",
"51",
"27",
"34",
"53",
"48",
"46",
"38",
"43",
"46",
"39",
"33",
"40",
"47",
"39",
"31",
"42",
"31",
"32",
"28",
"28",
"27",
"36",
"39",
"32",
"29",
"22",
"33",
"30",
"26",
"28",
"28",
"30",
"46",
"29",
"37",
"36",
"39",
"40",
"42",
"55",
"45",
"51",
"74",
"80",
"107",
"151",
"164",
"193",
"212",
"216",
"186",
"154",
"120",
"163",
"139",
"164",
"230",
"357",
"638",
"1076",
"1440",
"1881",
"2032",
"1968",
"1659",
"1551",
"1300",
"1196",
"1070",
"893",
"688",
"530",
"423",
"285",
"246",
"183",
"142",
"97",
"96",
"79",
"71",
"57",
"51",
"44",
"29",
"45",
"48",
"54",
"58",
"73",
"60",
"62",
"55",
"36",
"26",
"20",
"19",
"18",
"17",
"24",
"11",
"18",
"18",
"17",
"24",
"31",
"24",
"22",
"19",
"18",
"28",
"27",
"29",
"25",
"28",
"19",
"19",
"23",
"34",
"29",
"30",
"32",
"34",
"40",
"58",
"87",
"153",
"238",
"435",
"592",
"667",
"838",
"815",
"751",
"535",
"428",
"259",
"159",
"79",
"55",
"42",
"45",
"44",
"57",
"92",
"120",
"124",
"107",
"113",
"131",
"90",
"103",
"60",
"45",
"42",
"31",
"26",
"32",
"29",
"31",
"28",
"34",
"34",
"45",
"28",
"26",
"50",
"39",
"40",
"51",
"42",
"42",
"50",
"66",
"50",
"56",
"55",
"48",
"51",
"56",
"50",
"48",
"46",
"64",
"42",
"59",
"46",
"43",
"50",
"41",
"58",
"50",
"43",
"44",
"58",
"55",
"47",
"43",
"42",
"45",
"52",
"47",
"47",
"57",
"45",
"42",
"52",
"41",
"43",
"51",
"46",
"56",
"37",
"46",
"51",
"54",
"48",
"71",
"39",
"72",
"51",
"43",
"58",
"56",
"57",
"39",
"43",
"59",
"51",
"43",
"57",
"66",
"54",
"54",
"78",
"57",
"44",
"43",
"55",
"44",
"60",
"82",
"71",
"54",
"71",
"65",
"66",
"59",
"61",
"59",
"55",
"73",
"73",
"76",
"61",
"75",
"79",
"75",
"94",
"81",
"82",
"96",
"86",
"82",
"93",
"71",
"87",
"89",
"90",
"95",
"81",
"89",
"102",
"81",
"80",
"88",
"62",
"85",
"65",
"94",
"82",
"85",
"78",
"90",
"87",
"116",
"86",
"107",
"98",
"93",
"85",
"81",
"70",
"90",
"80",
"89",
"85",
"92",
"92",
"99",
"98",
"89",
"98",
"100",
"78",
"92",
"94",
"85",
"94",
"75",
"74",
"83",
"82",
"86",
"80",
"82",
"83",
"93",
"76",
"88",
"94",
"89",
"89",
"95",
"86",
"98",
"82",
"86",
"87",
"87",
"79",
"84",
"79",
"72",
"71",
"102",
"79",
"92",
"106",
"98",
"99",
"94",
"106",
"93",
"104",
"95",
"113",
"118",
"121",
"96",
"126",
"127",
"87",
"107",
"92",
"90",
"80",
"71",
"82",
"81",
"114",
"83",
"82",
"100",
"81",
"98",
"79",
"83",
"78",
"82",
"92",
"92",
"117",
"122",
"110",
"120",
"141",
"129",
"148",
"139",
"132",
"127",
"118",
"111",
"108",
"90",
"116",
"99",
"72",
"111",
"90",
"107",
"73",
"82",
"81",
"112",
"86",
"95",
"95",
"85",
"88",
"89",
"81",
"75",
"83",
"68",
"81",
"81",
"86",
"96",
"108",
"95",
"73",
"90",
"87",
"95",
"82",
"94",
"74",
"92",
"99",
"88",
"102",
"99",
"99",
"87",
"97",
"85",
"97",
"90",
"96",
"96",
"94",
"94",
"83",
"93",
"97",
"78",
"93",
"85",
"79",
"70",
"71",
"104",
"84",
"79",
"76",
"73",
"88",
"86",
"100",
"71",
"82",
"84",
"73",
"78",
"89",
"85",
"88",
"98",
"86",
"85",
"86",
"87",
"76",
"88",
"89",
"72",
"69",
"79",
"82",
"83",
"82",
"88",
"82",
"92",
"106",
"83",
"79",
"86",
"73",
"93",
"83",
"86",
"92",
"90",
"76",
"78",
"93",
"85",
"78",
"74",
"72",
"70",
"78",
"96",
"65",
"101",
"94",
"67",
"76",
"84",
"64",
"104",
"58",
"89",
"81",
"79",
"81",
"86",
"74",
"87",
"82",
"76",
"71",
"76",
"83",
"66",
"74",
"87",
"80",
"69",
"72",
"76",
"68",
"89",
"64",
"73",
"64",
"95",
"75",
"69",
"90",
"66",
"64",
"78",
"82",
"78",
"80",
"62",
"81",
"80",
"60",
"89",
"69",
"80",
"74",
"79",
"64",
"62",
"62",
"72",
"62",
"82",
"97",
"86",
"69",
"56",
"72",
"88",
"73",
"75",
"86",
"58",
"69",
"66",
"82",
"61",
"60",
"64",
"81",
"73",
"73",
"67",
"75",
"66",
"60",
"80",
"75",
"80",
"78",
"62",
"59",
"72",
"66",
"62",
"64",
"72",
"78",
"62",
"66",
"79",
"78",
"72",
"60",
"67",
"71",
"75",
"57",
"62",
"69",
"68",
"65",
"56",
"68",
"67",
"93",
"67",
"67",
"70",
"86",
"64",
"64",
"80",
"57",
"67",
"83",
"62",
"61",
"74",
"76",
"60",
"64",
"74",
"79",
"90",
"68",
"52",
"78",
"81",
"71",
"78",
"78",
"78",
"61",
"71",
"65",
"53",
"69",
"69",
"78",
"68",
"71",
"53",
"72",
"60",
"68",
"58",
"78",
"64",
"66",
"87",
"73",
"70",
"59",
"65",
"60",
"75",
"68",
"70",
"58",
"56",
"48",
"72",
"69",
"60",
"60",
"62",
"78",
"74",
"59",
"73",
"51",
"67",
"47",
"60",
"53",
"60",
"68",
"60",
"69",
"65",
"54",
"66",
"53",
"58",
"61",
"73",
"54",
"70",
"55",
"57",
"54",
"60",
"61",
"65",
"52",
"64",
"52",
"68",
"65",
"53",
"57",
"57",
"73",
"56",
"67",
"78",
"59",
"66",
"74",
"66",
"61",
"70",
"67",
"74",
"58",
"60",
"54",
"53",
"71",
"68",
"62",
"86",
"60",
"61",
"51",
"61",
"55",
"54",
"61",
"57",
"56",
"71",
"54",
"54",
"57",
"74",
"57",
"59",
"69",
"48",
"73",
"64",
"55",
"61",
"68",
"74",
"51",
"60",
"65",
"81",
"65",
"72",
"64",
"84",
"57",
"58",
"92",
"60",
"76",
"71",
"78",
"54",
"67",
"64",
"55",
"60",
"66",
"61",
"67",
"64",
"74",
"57",
"86",
"71",
"66",
"78",
"73",
"88",
"58",
"83",
"67",
"85",
"79",
"92",
"79",
"70",
"89",
"99",
"84",
"112",
"100",
"113",
"118",
"109",
"128",
"137",
"129",
"224",
"236",
"360",
"500",
"712",
"974",
"1419",
"1811",
"2602",
"3249",
"4260",
"5140",
"6567",
"7265",
"8788",
"9526",
"10927",
"11236",
"12119",
"12238",
"12141",
"11807",
"11317",
"10321",
"9663",
"7951",
"7086",
"5645",
"4896",
"3644",
"2796",
"2017",
"1526",
"969",
"695",
"453",
"334",
"233",
"160",
"113",
"94",
"75",
"86",
"82",
"75",
"78",
"58",
"51",
"65",
"66",
"69",
"55",
"65",
"53",
"62",
"60",
"72",
"61",
"68",
"68",
"61",
"73",
"71",
"78",
"72",
"72",
"59",
"68",
"58",
"87",
"79",
"72",
"76",
"78",
"79",
"73",
"61",
"98",
"98",
"88",
"95",
"85",
"106",
"98",
"118",
"123",
"122",
"143",
"138",
"145",
"160",
"173",
"204",
"174",
"220",
"201",
"264",
"214",
"287",
"276",
"294",
"295",
"316",
"288",
"350",
"319",
"321",
"347",
"385",
"366",
"382",
"378",
"451",
"437",
"503",
"626",
"701",
"801",
"1053",
"1098",
"1319",
"1549",
"1730",
"1803",
"2088",
"2030",
"2135",
"2048",
"2130",
"2012",
"1917",
"1652",
"1663",
"1372",
"1130",
"928",
"888",
"697",
"662",
"556",
"574",
"495",
"491",
"443",
"458",
"399",
"421",
"402",
"376",
"341",
"333",
"274",
"278",
"222",
"193",
"196",
"168",
"127",
"116",
"116",
"89",
"69",
"57",
"62",
"52",
"62",
"47",
"52",
"54",
"32",
"39",
"42",
"22552",
"Channel_info_start",
"Channel : Mg",
"Points : 0",
"Range : 0.000000 - 0.000000",
"Step : 0.010000",
"Channel_info_end",
"Channel_info_start",
"Channel : Al",
"Points : 0",
"Range : 0.000000 - 0.000000",
"Step : 0.010000",
"Channel_info_end",
"Channel_info_start",
"Channel : Si",
"Points : 0",
"Range : 0.000000 - 0.000000",
"Step : 0.010000",
"Channel_info_end",
"Channel_info_start",
"Channel : P ",
"Points : 0",
"Range : 0.000000 - 0.000000",
"Step : 0.010000",
"Channel_info_end",
"Channel_info_start",
"Channel : S ",
"Points : 0",
"Range : 0.000000 - 0.000000",
"Step : 0.010000",
"Channel_info_end",
"Channel_info_start",
"Channel : Cl",
"Points : 0",
"Range : 0.000000 - 0.000000",
"Step : 0.010000",
"Channel_info_end",
"Channel_info_start",
"Channel : K ",
"Points : 0",
"Range : 0.000000 - 0.000000",
"Step : 0.010000",
"Channel_info_end",
"Channel_info_start",
"Channel : Ca",
"Points : 0",
"Range : 0.000000 - 0.000000",
"Step : 0.010000",
"Channel_info_end",
"Channel_info_start",
"Channel : Ti",
"Points : 0",
"Range : 0.000000 - 0.000000",
"Step : 0.010000",
"Channel_info_end",
"Channel_info_start",
"Channel : V ",
"Points : 0",
"Range : 0.000000 - 0.000000",
"Step : 0.010000",
"Channel_info_end",
"Channel_info_start",
"Channel : Cr",
"Points : 0",
"Range : 0.000000 - 0.000000",
"Step : 0.010000",
"Channel_info_end",
"Channel_info_start",
"Channel : Mn",
"Points : 0",
"Range : 0.000000 - 0.000000",
"Step : 0.010000",
"Channel_info_end",
"Channel_info_start",
"Channel : Fe",
"Points : 0",
"Range : 0.000000 - 0.000000",
"Step : 0.010000",
"Channel_info_end",
"Channel_info_start",
"Channel : Cu",
"Points : 0",
"Range : 0.000000 - 0.000000",
"Step : 0.010000",
"Channel_info_end",
"Channel_info_start",
"Channel : Zn",
"Points : 0",
"Range : 0.000000 - 0.000000",
"Step : 0.010000",
"Channel_info_end",
"Channel_info_start",
"Channel : Sr",
"Points : 0",
"Range : 0.000000 - 0.000000",
"Step : 0.010000",
"Channel_info_end",
"Channel_info_start",
"Channel : Pb",
"Points : 0",
"Range : 0.000000 - 0.000000",
"Step : 0.010000",
"Channel_info_end",
"",
"Qualitative Result",
"--------------------------------------------------------------------------------",
"Element :  P , S , Ca",
"",
"Peak List",
"--------------------------------------------------------------------------------",
"Channel               Line        keV     Net Int.(cps/uA)",
"--------------------------------------------------------------------------------",
"Na                    P Ka         2.02     0.051",
"                      S Ka         2.30     0.652",
"                      S Kb         2.43     0.299",
"                      CaKa         3.68     0.300",
"                      CaKb         4.02     0.037",
"                      ----        17.42     7.161",
"--------------------------------------------------------------------------------",
"",
"Quantitative Result",
"--------------------------------------------------------------------------------",
"Analyte               Result             Std.Dev. Proc.-Calc. Line Intensity(cps/uA)",
"--------------------------------------------------------------------------------",
"====[No. 1 Layer]====< Layer1               >===============================",
"Layer1                   0.000 ug/cm2    -------- Flux       -------- --------",