File: inputs/edxCalibration/edx_raw/2010-06/nacl 15750.20100525200315.csv
"Sample    : nacl 15750",
"Operator  : thiago",
"Comment  : cubatao-g-policarbonato",
"Group     : kerr2007ag180cal_lt",
"Date       : 2010-05-25 19:57:05",
"",
"Mesurement Condition",
"------------------------------------------------------------------------------------",
"Instrument : 700HS2   Atmosphere : Vac.   Collimator : 10(mm)   Spin : No",
"------------------------------------------------------------------------------------",
"Analyte               TG kV   uA      FI Acq.(keV)  Anal.(keV)  Time(sec)     DT(%)",
"------------------------------------------------------------------------------------",
"Na                    Rh 50  802-Auto Al  0 - 20    0.8 - 1.2   Live -  180   15",
"",
"<Profile>",
"Channel_info_start",
"Channel : Na",
"Points : 2048",
"Range : 0.000000 - 20.48",
"Step : 0.010000",
"Channel_info_end",
"0",
"0",
"0",
"0",
"0",
"0",
"0",
"0",
"0",
"0",
"0",
"0",
"0",
"0",
"1",
"18",
"43",
"41",
"47",
"50",
"43",
"36",
"39",
"39",
"48",
"51",
"46",
"46",
"42",
"36",
"47",
"39",
"51",
"46",
"39",
"52",
"42",
"64",
"73",
"74",
"104",
"127",
"216",
"290",
"263",
"266",
"226",
"167",
"141",
"160",
"198",
"242",
"248",
"260",
"211",
"148",
"103",
"67",
"50",
"50",
"66",
"52",
"47",
"48",
"47",
"41",
"51",
"47",
"57",
"60",
"43",
"47",
"49",
"61",
"55",
"51",
"45",
"43",
"51",
"55",
"52",
"57",
"42",
"41",
"42",
"51",
"52",
"50",
"66",
"57",
"50",
"70",
"50",
"54",
"66",
"73",
"76",
"103",
"165",
"188",
"216",
"187",
"201",
"211",
"149",
"121",
"147",
"140",
"169",
"160",
"184",
"199",
"192",
"209",
"248",
"296",
"304",
"252",
"290",
"315",
"317",
"336",
"364",
"411",
"611",
"1119",
"2199",
"4153",
"6671",
"9829",
"12826",
"13895",
"13054",
"10893",
"7826",
"4888",
"2789",
"1631",
"1192",
"1226",
"1327",
"1407",
"1252",
"968",
"737",
"425",
"245",
"136",
"64",
"45",
"47",
"33",
"39",
"39",
"33",
"38",
"26",
"42",
"33",
"32",
"34",
"38",
"45",
"50",
"39",
"43",
"39",
"45",
"46",
"41",
"34",
"43",
"48",
"47",
"54",
"72",
"105",
"153",
"279",
"411",
"675",
"949",
"1325",
"1617",
"1762",
"1787",
"1575",
"1226",
"958",
"565",
"394",
"227",
"171",
"149",
"158",
"171",
"173",
"188",
"204",
"266",
"292",
"251",
"304",
"226",
"190",
"142",
"116",
"90",
"75",
"76",
"93",
"74",
"85",
"70",
"73",
"82",
"101",
"89",
"115",
"107",
"122",
"109",
"122",
"130",
"152",
"107",
"135",
"153",
"136",
"149",
"122",
"129",
"125",
"123",
"140",
"142",
"142",
"129",
"122",
"103",
"130",
"108",
"111",
"95",
"115",
"87",
"112",
"104",
"110",
"110",
"108",
"124",
"110",
"101",
"110",
"100",
"103",
"134",
"120",
"125",
"113",
"135",
"126",
"129",
"147",
"120",
"164",
"150",
"142",
"157",
"135",
"169",
"153",
"158",
"145",
"128",
"162",
"142",
"146",
"125",
"154",
"134",
"166",
"171",
"157",
"162",
"157",
"133",
"129",
"163",
"149",
"157",
"170",
"183",
"173",
"163",
"174",
"194",
"176",
"174",
"186",
"221",
"200",
"192",
"192",
"216",
"199",
"211",
"221",
"239",
"229",
"230",
"209",
"224",
"221",
"223",
"254",
"237",
"251",
"229",
"248",
"236",
"246",
"276",
"221",
"227",
"239",
"246",
"235",
"280",
"262",
"248",
"275",
"284",
"275",
"269",
"286",
"269",
"262",
"277",
"283",
"257",
"275",
"286",
"282",
"285",
"282",
"260",
"280",
"274",
"249",
"272",
"294",
"263",
"263",
"270",
"263",
"228",
"258",
"251",
"249",
"248",
"253",
"233",
"259",
"221",
"240",
"224",
"246",
"255",
"262",
"270",
"277",
"244",
"267",
"247",
"262",
"264",
"250",
"257",
"266",
"263",
"270",
"257",
"259",
"261",
"287",
"266",
"288",
"273",
"277",
"278",
"316",
"299",
"331",
"327",
"319",
"346",
"328",
"338",
"319",
"363",
"351",
"357",
"327",
"313",
"354",
"301",
"299",
"303",
"313",
"249",
"280",
"265",
"279",
"298",
"298",
"265",
"332",
"327",
"289",
"266",
"286",
"315",
"334",
"327",
"323",
"414",
"471",
"512",
"498",
"514",
"522",
"518",
"441",
"387",
"387",
"365",
"338",
"320",
"287",
"274",
"286",
"294",
"296",
"308",
"286",
"271",
"302",
"289",
"287",
"259",
"265",
"285",
"273",
"255",
"284",
"253",
"283",
"255",
"333",
"279",
"250",
"262",
"249",
"250",
"323",
"272",
"297",
"278",
"272",
"270",
"296",
"271",
"255",
"303",
"302",
"313",
"302",
"298",
"304",
"278",
"307",
"273",
"275",
"226",
"263",
"287",
"274",
"246",
"237",
"258",
"292",
"254",
"246",
"271",
"273",
"265",
"282",
"260",
"253",
"261",
"282",
"277",
"266",
"229",
"250",
"280",
"251",
"288",
"301",
"296",
"276",
"300",
"263",
"253",
"251",
"248",
"263",
"274",
"258",
"236",
"310",
"274",
"266",
"265",
"242",
"282",
"289",
"277",
"251",
"269",
"261",
"265",
"280",
"260",
"247",
"270",
"273",
"228",
"267",
"274",
"289",
"251",
"275",
"283",
"261",
"286",
"273",
"246",
"234",
"238",
"262",
"269",
"286",
"258",
"302",
"237",
"259",
"275",
"257",
"282",
"275",
"297",
"267",
"249",
"295",
"225",
"263",
"283",
"294",
"257",
"280",
"253",
"264",
"266",
"271",
"244",
"263",
"266",
"270",
"249",
"249",
"259",
"264",
"255",
"271",
"242",
"251",
"271",
"248",
"251",
"277",
"263",
"233",
"242",
"262",
"233",
"242",
"219",
"241",
"246",
"220",
"249",
"271",
"238",
"216",
"237",
"263",
"234",
"216",
"251",
"224",
"222",
"224",
"225",
"252",
"263",
"230",
"244",
"254",
"236",
"226",
"240",
"244",
"245",
"244",
"236",
"262",
"230",
"249",
"219",
"248",
"241",
"237",
"259",
"247",
"244",
"265",
"242",
"228",
"220",
"250",
"233",
"241",
"220",
"226",
"224",
"249",
"188",
"222",
"226",
"244",
"232",
"235",
"214",
"250",
"234",
"240",
"188",
"219",
"210",
"211",
"227",
"223",
"199",
"253",
"208",
"211",
"208",
"207",
"219",
"223",
"209",
"226",
"210",
"239",
"211",
"209",
"212",
"203",
"204",
"216",
"213",
"217",
"204",
"214",
"201",
"232",
"228",
"205",
"212",
"227",
"232",
"252",
"219",
"202",
"209",
"209",
"195",
"215",
"204",
"219",
"191",
"229",
"246",
"220",
"214",
"216",
"213",
"211",
"212",
"210",
"229",
"234",
"214",
"214",
"185",
"241",
"214",
"228",
"189",
"210",
"192",
"222",
"200",
"197",
"200",
"225",
"177",
"244",
"200",
"203",
"203",
"187",
"190",
"201",
"197",
"209",
"182",
"192",
"190",
"212",
"205",
"245",
"201",
"225",
"191",
"187",
"186",
"179",
"215",
"179",
"189",
"165",
"198",
"190",
"191",
"204",
"204",
"198",
"213",
"200",
"194",
"183",
"195",
"180",
"173",
"208",
"190",
"183",
"191",
"204",
"184",
"187",
"198",
"183",
"172",
"179",
"178",
"182",
"191",
"223",
"150",
"162",
"192",
"183",
"208",
"176",
"185",
"190",
"198",
"171",
"188",
"187",
"158",
"188",
"151",
"163",
"162",
"173",
"159",
"204",
"184",
"178",
"153",
"198",
"190",
"148",
"197",
"164",
"173",
"203",
"160",
"188",
"177",
"189",
"175",
"171",
"166",
"179",
"157",
"186",
"165",
"172",
"172",
"189",
"180",
"202",
"187",
"223",
"198",
"174",
"155",
"203",
"180",
"177",
"172",
"160",
"148",
"184",
"144",
"166",
"163",
"159",
"194",
"178",
"158",
"173",
"173",
"175",
"153",
"138",
"161",
"161",
"149",
"175",
"173",
"164",
"205",
"159",
"179",
"166",
"167",
"198",
"180",
"159",
"161",
"155",
"183",
"164",
"173",
"176",
"177",
"180",
"170",
"151",
"174",
"183",
"140",
"196",
"171",
"169",
"184",
"175",
"159",
"208",
"170",
"185",
"162",
"183",
"188",
"192",
"179",
"165",
"195",
"221",
"177",
"179",
"167",
"204",
"179",
"163",
"155",
"182",
"167",
"205",
"177",
"189",
"210",
"202",
"179",
"179",
"201",
"211",
"203",
"192",
"182",
"211",
"207",
"195",
"212",
"228",
"232",
"250",
"233",
"278",
"275",
"276",
"257",
"286",
"269",
"316",
"335",
"358",
"349",
"392",
"358",
"452",
"481",
"539",
"561",
"624",
"565",
"698",
"681",
"725",
"808",
"883",
"845",
"943",
"1002",
"1160",
"1046",
"1177",
"1134",
"1190",
"1262",
"1250",
"1161",
"1363",
"1205",
"1177",
"1207",
"1171",
"1081",
"1026",
"937",
"932",
"850",
"871",
"800",
"744",
"638",
"629",
"576",
"595",
"506",
"484",
"417",
"417",
"345",
"390",
"295",
"312",
"285",
"250",
"244",
"260",
"284",
"255",
"266",
"286",
"288",
"290",
"323",
"348",
"350",
"397",
"421",
"466",
"475",
"511",
"498",
"514",
"437",
"459",
"428",
"432",
"372",
"359",
"307",
"286",
"250",
"244",
"213",
"209",
"172",
"163",
"178",
"157",
"138",
"150",
"132",
"83000",
"Channel_info_start",
"Channel : Mg",
"Points : 0",
"Range : 0.000000 - 0.000000",
"Step : 0.010000",
"Channel_info_end",
"Channel_info_start",
"Channel : Al",
"Points : 0",
"Range : 0.000000 - 0.000000",
"Step : 0.010000",
"Channel_info_end",
"Channel_info_start",
"Channel : Si",
"Points : 0",
"Range : 0.000000 - 0.000000",
"Step : 0.010000",
"Channel_info_end",
"Channel_info_start",
"Channel : P ",
"Points : 0",
"Range : 0.000000 - 0.000000",
"Step : 0.010000",
"Channel_info_end",
"Channel_info_start",
"Channel : S ",
"Points : 0",
"Range : 0.000000 - 0.000000",
"Step : 0.010000",
"Channel_info_end",
"Channel_info_start",
"Channel : Cl",
"Points : 0",
"Range : 0.000000 - 0.000000",
"Step : 0.010000",
"Channel_info_end",
"Channel_info_start",
"Channel : K ",
"Points : 0",
"Range : 0.000000 - 0.000000",
"Step : 0.010000",
"Channel_info_end",
"Channel_info_start",
"Channel : Ca",
"Points : 0",
"Range : 0.000000 - 0.000000",
"Step : 0.010000",
"Channel_info_end",
"Channel_info_start",
"Channel : Ti",
"Points : 0",
"Range : 0.000000 - 0.000000",
"Step : 0.010000",
"Channel_info_end",
"Channel_info_start",
"Channel : V ",
"Points : 0",
"Range : 0.000000 - 0.000000",
"Step : 0.010000",
"Channel_info_end",
"Channel_info_start",
"Channel : Cr",
"Points : 0",
"Range : 0.000000 - 0.000000",
"Step : 0.010000",
"Channel_info_end",
"Channel_info_start",
"Channel : Mn",
"Points : 0",
"Range : 0.000000 - 0.000000",
"Step : 0.010000",
"Channel_info_end",
"Channel_info_start",
"Channel : Fe",
"Points : 0",
"Range : 0.000000 - 0.000000",
"Step : 0.010000",
"Channel_info_end",
"Channel_info_start",
"Channel : Cu",
"Points : 0",
"Range : 0.000000 - 0.000000",
"Step : 0.010000",
"Channel_info_end",
"Channel_info_start",
"Channel : Zn",
"Points : 0",
"Range : 0.000000 - 0.000000",
"Step : 0.010000",
"Channel_info_end",
"Channel_info_start",
"Channel : Sr",
"Points : 0",
"Range : 0.000000 - 0.000000",
"Step : 0.010000",
"Channel_info_end",
"Channel_info_start",
"Channel : Pb",
"Points : 0",
"Range : 0.000000 - 0.000000",
"Step : 0.010000",
"Channel_info_end",
"",
"Qualitative Result",
"--------------------------------------------------------------------------------",
"Element :  Zn, P , S , Cl, Ca, Rh",
"",
"Peak List",
"--------------------------------------------------------------------------------",
"Channel               Line        keV     Net Int.(cps/uA)",
"--------------------------------------------------------------------------------",
"Na                    ZnLL         0.88     0.017",
"                      ZnLb1        1.03     0.005",
"                      ZnLa         1.06     0.016",
"                      P Ka         2.00     0.011",
"                      S Ka         2.30     0.012",
"                      ClKa         2.62     1.237",
"                      ClKb         2.84     0.103",
"                      CaKa         3.68     0.168",
"                      CaKb         4.00     0.021",
"                      ZnKa         8.61     0.029",
"                      RhKaC       19.15     0.139",
"                      ----        19.42     0.067",
"                      RhKa        20.05     0.043",
"--------------------------------------------------------------------------------",
"",
"Quantitative Result",
"--------------------------------------------------------------------------------",
"Analyte               Result             Std.Dev. Proc.-Calc. Line Intensity(cps/uA)",
"--------------------------------------------------------------------------------",
"====[No. 1 Layer]====< Layer1               >===============================",
"Layer1                   0.000 ug/cm2    -------- Flux       -------- --------",