File: inputs/edxCalibration/edx_raw/2010-06/Nb2O3 15763.20100611021902.csv
"Sample    : Nb2O3 15763",
"Operator  : Luís",
"Comment  : cubatao-g-policarbonato",
"Group     : kerr2007ag180cal_lt",
"Date       : 2010-06-11 02:14:59",
"",
"Mesurement Condition",
"------------------------------------------------------------------------------------",
"Instrument : 700HS2   Atmosphere : Vac.   Collimator : 10(mm)   Spin : No",
"------------------------------------------------------------------------------------",
"Analyte               TG kV   uA      FI Acq.(keV)  Anal.(keV)  Time(sec)     DT(%)",
"------------------------------------------------------------------------------------",
"Na                    Rh 50  210-Auto Al  0 - 20    0.8 - 1.2   Live -  179   14",
"",
"<Profile>",
"Channel_info_start",
"Channel : Na",
"Points : 2048",
"Range : 0.000000 - 20.48",
"Step : 0.010000",
"Channel_info_end",
"0",
"0",
"0",
"0",
"0",
"0",
"0",
"0",
"0",
"0",
"0",
"0",
"0",
"0",
"0",
"11",
"50",
"45",
"56",
"66",
"81",
"78",
"81",
"81",
"83",
"68",
"73",
"55",
"48",
"60",
"58",
"58",
"48",
"46",
"36",
"48",
"54",
"36",
"44",
"38",
"45",
"45",
"41",
"39",
"45",
"43",
"50",
"37",
"44",
"41",
"46",
"47",
"41",
"44",
"39",
"29",
"42",
"36",
"36",
"36",
"43",
"31",
"31",
"28",
"36",
"33",
"34",
"24",
"40",
"34",
"31",
"22",
"28",
"20",
"31",
"33",
"25",
"25",
"24",
"29",
"38",
"32",
"27",
"29",
"50",
"48",
"40",
"60",
"55",
"78",
"81",
"100",
"120",
"144",
"154",
"207",
"212",
"217",
"221",
"225",
"221",
"226",
"266",
"327",
"539",
"933",
"1489",
"1995",
"2445",
"2485",
"2394",
"2079",
"1783",
"1543",
"1269",
"1079",
"842",
"651",
"434",
"340",
"258",
"165",
"124",
"96",
"62",
"64",
"57",
"32",
"46",
"36",
"46",
"55",
"59",
"75",
"72",
"54",
"45",
"43",
"40",
"25",
"32",
"20",
"28",
"23",
"29",
"27",
"15",
"18",
"12",
"19",
"22",
"15",
"5",
"14",
"26",
"22",
"16",
"25",
"13",
"27",
"17",
"20",
"12",
"20",
"20",
"18",
"18",
"26",
"15",
"19",
"27",
"22",
"14",
"14",
"23",
"30",
"28",
"39",
"67",
"106",
"154",
"247",
"320",
"379",
"460",
"445",
"403",
"306",
"215",
"136",
"97",
"58",
"44",
"52",
"43",
"38",
"45",
"53",
"75",
"86",
"81",
"84",
"80",
"56",
"53",
"52",
"47",
"26",
"24",
"23",
"23",
"32",
"22",
"25",
"28",
"28",
"25",
"45",
"31",
"37",
"36",
"44",
"51",
"39",
"47",
"48",
"52",
"40",
"37",
"53",
"65",
"57",
"48",
"57",
"47",
"34",
"61",
"42",
"42",
"37",
"42",
"51",
"30",
"44",
"38",
"33",
"41",
"32",
"39",
"41",
"47",
"38",
"39",
"39",
"44",
"43",
"41",
"38",
"34",
"30",
"42",
"38",
"44",
"45",
"43",
"33",
"54",
"48",
"52",
"60",
"59",
"55",
"42",
"52",
"58",
"38",
"51",
"31",
"42",
"51",
"33",
"42",
"44",
"53",
"56",
"40",
"61",
"46",
"51",
"57",
"45",
"58",
"61",
"60",
"65",
"59",
"53",
"70",
"68",
"64",
"68",
"59",
"59",
"66",
"57",
"48",
"58",
"83",
"66",
"67",
"62",
"80",
"70",
"70",
"84",
"64",
"60",
"88",
"66",
"76",
"84",
"81",
"69",
"90",
"73",
"72",
"84",
"84",
"67",
"64",
"83",
"56",
"81",
"81",
"68",
"89",
"79",
"82",
"75",
"68",
"84",
"81",
"92",
"101",
"112",
"81",
"81",
"81",
"101",
"79",
"79",
"87",
"89",
"82",
"86",
"88",
"79",
"87",
"86",
"83",
"76",
"85",
"94",
"78",
"78",
"88",
"74",
"82",
"80",
"90",
"85",
"85",
"99",
"101",
"84",
"83",
"90",
"85",
"80",
"79",
"73",
"89",
"94",
"98",
"85",
"98",
"102",
"75",
"76",
"100",
"96",
"97",
"90",
"96",
"104",
"88",
"93",
"102",
"104",
"95",
"125",
"108",
"116",
"98",
"131",
"127",
"90",
"112",
"106",
"104",
"80",
"90",
"88",
"76",
"95",
"76",
"84",
"75",
"86",
"75",
"93",
"107",
"97",
"89",
"84",
"83",
"101",
"116",
"109",
"135",
"152",
"127",
"138",
"95",
"117",
"106",
"96",
"72",
"93",
"101",
"84",
"83",
"106",
"98",
"88",
"89",
"96",
"82",
"96",
"85",
"93",
"88",
"70",
"88",
"92",
"79",
"80",
"85",
"74",
"81",
"86",
"73",
"94",
"94",
"88",
"89",
"65",
"99",
"84",
"88",
"95",
"86",
"64",
"95",
"80",
"102",
"115",
"84",
"94",
"62",
"87",
"95",
"82",
"97",
"94",
"65",
"90",
"87",
"81",
"86",
"90",
"74",
"75",
"69",
"85",
"62",
"68",
"80",
"67",
"76",
"80",
"66",
"95",
"82",
"59",
"67",
"73",
"76",
"94",
"74",
"90",
"86",
"73",
"85",
"83",
"75",
"66",
"98",
"78",
"90",
"106",
"73",
"73",
"69",
"93",
"69",
"75",
"94",
"82",
"81",
"65",
"78",
"80",
"78",
"56",
"69",
"93",
"62",
"79",
"70",
"89",
"79",
"86",
"83",
"94",
"66",
"78",
"76",
"78",
"88",
"66",
"72",
"76",
"73",
"81",
"81",
"62",
"71",
"86",
"64",
"78",
"75",
"86",
"78",
"64",
"66",
"74",
"73",
"85",
"69",
"92",
"79",
"81",
"84",
"83",
"78",
"67",
"74",
"82",
"72",
"71",
"71",
"81",
"67",
"82",
"76",
"87",
"66",
"84",
"62",
"68",
"72",
"73",
"83",
"86",
"89",
"70",
"70",
"89",
"69",
"69",
"66",
"76",
"83",
"62",
"65",
"76",
"82",
"92",
"84",
"66",
"57",
"51",
"61",
"73",
"70",
"70",
"76",
"58",
"65",
"76",
"67",
"74",
"69",
"62",
"69",
"62",
"76",
"86",
"65",
"84",
"81",
"68",
"66",
"56",
"87",
"72",
"61",
"69",
"67",
"61",
"76",
"75",
"66",
"67",
"57",
"88",
"64",
"68",
"79",
"71",
"68",
"54",
"71",
"71",
"75",
"76",
"67",
"70",
"67",
"64",
"70",
"64",
"79",
"74",
"78",
"61",
"66",
"86",
"52",
"75",
"65",
"66",
"62",
"64",
"69",
"72",
"59",
"70",
"92",
"59",
"69",
"89",
"58",
"85",
"55",
"69",
"73",
"70",
"68",
"72",
"82",
"53",
"68",
"74",
"68",
"79",
"62",
"71",
"59",
"73",
"74",
"67",
"66",
"51",
"61",
"66",
"70",
"55",
"59",
"62",
"59",
"66",
"62",
"72",
"70",
"60",
"60",
"68",
"62",
"56",
"71",
"56",
"56",
"60",
"54",
"64",
"51",
"64",
"66",
"70",
"53",
"62",
"51",
"65",
"61",
"73",
"62",
"59",
"80",
"53",
"50",
"68",
"68",
"71",
"52",
"61",
"65",
"76",
"56",
"62",
"56",
"68",
"57",
"67",
"60",
"71",
"50",
"70",
"52",
"60",
"66",
"69",
"53",
"68",
"66",
"67",
"60",
"72",
"62",
"67",
"71",
"59",
"82",
"93",
"60",
"73",
"71",
"79",
"53",
"85",
"76",
"66",
"76",
"71",
"76",
"75",
"76",
"92",
"80",
"84",
"76",
"84",
"85",
"85",
"81",
"99",
"84",
"87",
"111",
"104",
"98",
"115",
"94",
"117",
"107",
"116",
"126",
"167",
"189",
"211",
"322",
"476",
"654",
"946",
"1247",
"1906",
"2380",
"3343",
"4184",
"5461",
"6373",
"7772",
"8941",
"10508",
"11123",
"12186",
"12773",
"13246",
"12454",
"12489",
"11156",
"10636",
"8755",
"7994",
"6371",
"5349",
"3970",
"3132",
"2275",
"1569",
"1112",
"759",
"536",
"333",
"216",
"178",
"135",
"126",
"101",
"89",
"80",
"75",
"78",
"80",
"74",
"59",
"66",
"59",
"68",
"55",
"66",
"67",
"57",
"65",
"55",
"58",
"55",
"72",
"67",
"54",
"52",
"64",
"55",
"64",
"51",
"60",
"61",
"60",
"52",
"74",
"71",
"59",
"46",
"79",
"58",
"70",
"61",
"69",
"54",
"56",
"61",
"72",
"78",
"65",
"62",
"78",
"65",
"73",
"69",
"80",
"82",
"78",
"65",
"80",
"78",
"79",
"65",
"98",
"88",
"88",
"102",
"108",
"132",
"171",
"188",
"241",
"281",
"384",
"568",
"651",
"814",
"1049",
"1219",
"1487",
"1584",
"1811",
"1955",
"2181",
"2084",
"2131",
"2076",
"2061",
"1783",
"1696",
"1555",
"1421",
"1130",
"1007",
"838",
"791",
"679",
"655",
"587",
"608",
"568",
"523",
"570",
"588",
"566",
"552",
"544",
"501",
"470",
"380",
"420",
"404",
"353",
"366",
"324",
"375",
"296",
"310",
"256",
"285",
"261",
"261",
"235",
"253",
"219",
"205",
"186",
"205",
"139",
"168",
"137",
"146",
"110",
"102",
"107",
"104",
"92",
"92",
"88",
"74",
"57",
"79",
"66",
"86",
"60",
"68",
"56",
"89",
"70",
"70",
"86",
"82",
"93",
"126",
"103",
"135",
"127",
"155",
"150",
"155",
"134",
"139",
"122",
"120",
"134",
"99",
"99",
"79",
"75",
"70",
"72",
"57",
"44",
"57",
"44",
"53",
"50",
"51",
"37",
"22757",
"Channel_info_start",
"Channel : Mg",
"Points : 0",
"Range : 0.000000 - 0.000000",
"Step : 0.010000",
"Channel_info_end",
"Channel_info_start",
"Channel : Al",
"Points : 0",
"Range : 0.000000 - 0.000000",
"Step : 0.010000",
"Channel_info_end",
"Channel_info_start",
"Channel : Si",
"Points : 0",
"Range : 0.000000 - 0.000000",
"Step : 0.010000",
"Channel_info_end",
"Channel_info_start",
"Channel : P ",
"Points : 0",
"Range : 0.000000 - 0.000000",
"Step : 0.010000",
"Channel_info_end",
"Channel_info_start",
"Channel : S ",
"Points : 0",
"Range : 0.000000 - 0.000000",
"Step : 0.010000",
"Channel_info_end",
"Channel_info_start",
"Channel : Cl",
"Points : 0",
"Range : 0.000000 - 0.000000",
"Step : 0.010000",
"Channel_info_end",
"Channel_info_start",
"Channel : K ",
"Points : 0",
"Range : 0.000000 - 0.000000",
"Step : 0.010000",
"Channel_info_end",
"Channel_info_start",
"Channel : Ca",
"Points : 0",
"Range : 0.000000 - 0.000000",
"Step : 0.010000",
"Channel_info_end",
"Channel_info_start",
"Channel : Ti",
"Points : 0",
"Range : 0.000000 - 0.000000",
"Step : 0.010000",
"Channel_info_end",
"Channel_info_start",
"Channel : V ",
"Points : 0",
"Range : 0.000000 - 0.000000",
"Step : 0.010000",
"Channel_info_end",
"Channel_info_start",
"Channel : Cr",
"Points : 0",
"Range : 0.000000 - 0.000000",
"Step : 0.010000",
"Channel_info_end",
"Channel_info_start",
"Channel : Mn",
"Points : 0",
"Range : 0.000000 - 0.000000",
"Step : 0.010000",
"Channel_info_end",
"Channel_info_start",
"Channel : Fe",
"Points : 0",
"Range : 0.000000 - 0.000000",
"Step : 0.010000",
"Channel_info_end",
"Channel_info_start",
"Channel : Cu",
"Points : 0",
"Range : 0.000000 - 0.000000",
"Step : 0.010000",
"Channel_info_end",
"Channel_info_start",
"Channel : Zn",
"Points : 0",
"Range : 0.000000 - 0.000000",
"Step : 0.010000",
"Channel_info_end",
"Channel_info_start",
"Channel : Sr",
"Points : 0",
"Range : 0.000000 - 0.000000",
"Step : 0.010000",
"Channel_info_end",
"Channel_info_start",
"Channel : Pb",
"Points : 0",
"Range : 0.000000 - 0.000000",
"Step : 0.010000",
"Channel_info_end",
"",
"Qualitative Result",
"--------------------------------------------------------------------------------",
"Element :  Nb, Ca",
"",
"Peak List",
"--------------------------------------------------------------------------------",
"Channel               Line        keV     Net Int.(cps/uA)",
"--------------------------------------------------------------------------------",
"Na                    ----         0.42     0.016",
"                      ----         1.92     0.051",
"                      NbLa         2.17     0.792",
"                      CaKa         3.68     0.168",
"                      CaKb         4.00     0.021",
"                      NbKa        16.56     7.426",
"                      NbKb        18.56     1.170",
"                      ----        18.97     0.179",
"                      ----        20.04     0.059",
"--------------------------------------------------------------------------------",
"",
"Quantitative Result",
"--------------------------------------------------------------------------------",
"Analyte               Result             Std.Dev. Proc.-Calc. Line Intensity(cps/uA)",
"--------------------------------------------------------------------------------",
"====[No. 1 Layer]====< Layer1               >===============================",
"Layer1                   0.000 ug/cm2    -------- Flux       -------- --------",