File: inputs/edxCalibration/edx_raw/2010-06/Nb2O3  15763.20100525234137.csv
"Sample    : Nb2O3  15763",
"Operator  : luisf",
"Comment  : cubatao-g-policarbonato",
"Group     : kerr2007ag180cal_lt",
"Date       : 2010-05-25 23:37:31",
"",
"Mesurement Condition",
"------------------------------------------------------------------------------------",
"Instrument : 700HS2   Atmosphere : Vac.   Collimator : 10(mm)   Spin : No",
"------------------------------------------------------------------------------------",
"Analyte               TG kV   uA      FI Acq.(keV)  Anal.(keV)  Time(sec)     DT(%)",
"------------------------------------------------------------------------------------",
"Na                    Rh 50  237-Auto Al  0 - 20    0.8 - 1.2   Live -  179   16",
"",
"<Profile>",
"Channel_info_start",
"Channel : Na",
"Points : 2048",
"Range : 0.000000 - 20.48",
"Step : 0.010000",
"Channel_info_end",
"0",
"0",
"0",
"0",
"0",
"0",
"0",
"0",
"0",
"0",
"0",
"0",
"0",
"0",
"1",
"14",
"30",
"39",
"52",
"82",
"105",
"92",
"90",
"92",
"73",
"85",
"72",
"73",
"59",
"54",
"46",
"53",
"48",
"46",
"49",
"41",
"56",
"48",
"38",
"60",
"52",
"33",
"52",
"54",
"49",
"56",
"50",
"52",
"35",
"42",
"47",
"42",
"49",
"51",
"41",
"34",
"34",
"41",
"44",
"40",
"49",
"29",
"38",
"30",
"27",
"25",
"37",
"30",
"38",
"31",
"37",
"35",
"35",
"27",
"35",
"43",
"48",
"36",
"35",
"42",
"31",
"44",
"30",
"49",
"49",
"52",
"61",
"72",
"64",
"73",
"89",
"106",
"132",
"158",
"225",
"239",
"218",
"247",
"245",
"258",
"224",
"242",
"267",
"403",
"586",
"1030",
"1621",
"2220",
"2676",
"2648",
"2594",
"2232",
"2086",
"1641",
"1477",
"1140",
"971",
"704",
"519",
"380",
"278",
"171",
"144",
"110",
"92",
"60",
"65",
"42",
"31",
"43",
"59",
"41",
"62",
"67",
"66",
"72",
"56",
"40",
"31",
"30",
"30",
"14",
"30",
"29",
"28",
"23",
"22",
"27",
"20",
"28",
"21",
"14",
"17",
"15",
"16",
"16",
"25",
"26",
"20",
"13",
"23",
"24",
"24",
"26",
"16",
"17",
"24",
"15",
"26",
"21",
"11",
"28",
"13",
"21",
"38",
"17",
"30",
"47",
"73",
"109",
"206",
"240",
"368",
"461",
"471",
"504",
"461",
"352",
"262",
"176",
"87",
"77",
"56",
"59",
"46",
"51",
"55",
"59",
"87",
"75",
"82",
"86",
"96",
"81",
"61",
"46",
"40",
"30",
"30",
"24",
"34",
"33",
"26",
"34",
"40",
"40",
"42",
"30",
"34",
"39",
"42",
"52",
"46",
"42",
"56",
"40",
"76",
"73",
"53",
"50",
"64",
"52",
"60",
"56",
"62",
"61",
"52",
"46",
"52",
"44",
"38",
"46",
"48",
"51",
"55",
"49",
"38",
"52",
"47",
"38",
"43",
"56",
"34",
"52",
"39",
"50",
"43",
"47",
"60",
"46",
"54",
"41",
"56",
"44",
"44",
"56",
"49",
"48",
"52",
"62",
"63",
"68",
"68",
"58",
"66",
"50",
"43",
"55",
"54",
"63",
"72",
"52",
"71",
"48",
"64",
"49",
"50",
"65",
"64",
"73",
"74",
"55",
"61",
"67",
"73",
"69",
"58",
"68",
"76",
"55",
"72",
"54",
"79",
"73",
"69",
"58",
"68",
"88",
"54",
"79",
"96",
"79",
"85",
"68",
"79",
"90",
"106",
"85",
"79",
"89",
"90",
"89",
"93",
"79",
"122",
"98",
"90",
"98",
"91",
"94",
"84",
"89",
"93",
"89",
"100",
"90",
"88",
"86",
"103",
"89",
"94",
"92",
"100",
"107",
"94",
"94",
"98",
"125",
"112",
"106",
"107",
"102",
"101",
"111",
"94",
"100",
"97",
"85",
"88",
"100",
"101",
"76",
"92",
"74",
"96",
"110",
"99",
"82",
"96",
"102",
"89",
"112",
"103",
"104",
"97",
"96",
"90",
"116",
"93",
"88",
"98",
"92",
"97",
"90",
"100",
"99",
"97",
"112",
"109",
"101",
"129",
"116",
"88",
"98",
"92",
"105",
"110",
"114",
"118",
"141",
"136",
"137",
"139",
"99",
"145",
"102",
"97",
"101",
"93",
"93",
"104",
"94",
"105",
"107",
"101",
"107",
"101",
"84",
"110",
"111",
"113",
"88",
"109",
"115",
"100",
"104",
"124",
"135",
"130",
"128",
"144",
"142",
"137",
"130",
"128",
"155",
"122",
"103",
"107",
"112",
"115",
"102",
"105",
"104",
"106",
"91",
"84",
"87",
"116",
"94",
"88",
"96",
"106",
"102",
"101",
"87",
"91",
"92",
"106",
"96",
"111",
"96",
"99",
"91",
"88",
"77",
"102",
"80",
"96",
"103",
"97",
"88",
"101",
"86",
"97",
"86",
"79",
"104",
"91",
"101",
"105",
"111",
"92",
"99",
"99",
"91",
"82",
"87",
"87",
"76",
"100",
"92",
"81",
"100",
"110",
"92",
"89",
"86",
"90",
"80",
"96",
"103",
"93",
"88",
"93",
"90",
"112",
"84",
"98",
"91",
"63",
"98",
"76",
"111",
"81",
"110",
"93",
"94",
"76",
"89",
"64",
"79",
"91",
"98",
"96",
"82",
"84",
"93",
"98",
"91",
"87",
"87",
"87",
"109",
"101",
"85",
"84",
"85",
"91",
"88",
"90",
"91",
"74",
"89",
"78",
"85",
"74",
"71",
"75",
"84",
"87",
"93",
"81",
"89",
"90",
"76",
"93",
"73",
"99",
"91",
"90",
"96",
"92",
"82",
"85",
"80",
"79",
"105",
"89",
"72",
"71",
"75",
"105",
"72",
"85",
"84",
"75",
"87",
"82",
"91",
"92",
"78",
"81",
"74",
"106",
"102",
"77",
"88",
"87",
"86",
"98",
"82",
"80",
"66",
"85",
"80",
"86",
"77",
"73",
"80",
"89",
"102",
"91",
"66",
"93",
"85",
"98",
"92",
"85",
"74",
"93",
"69",
"93",
"76",
"93",
"73",
"81",
"82",
"69",
"74",
"76",
"74",
"97",
"82",
"94",
"81",
"93",
"72",
"97",
"82",
"85",
"85",
"93",
"92",
"72",
"90",
"84",
"69",
"81",
"80",
"87",
"75",
"72",
"75",
"91",
"78",
"82",
"82",
"66",
"71",
"67",
"91",
"78",
"63",
"78",
"86",
"66",
"72",
"77",
"88",
"77",
"78",
"69",
"84",
"77",
"79",
"90",
"67",
"77",
"87",
"72",
"76",
"81",
"71",
"92",
"66",
"90",
"68",
"92",
"90",
"67",
"89",
"60",
"74",
"74",
"75",
"69",
"48",
"74",
"82",
"85",
"76",
"75",
"76",
"87",
"65",
"77",
"76",
"71",
"68",
"69",
"61",
"74",
"69",
"81",
"75",
"64",
"63",
"50",
"77",
"63",
"77",
"62",
"69",
"58",
"91",
"67",
"68",
"74",
"74",
"81",
"55",
"88",
"61",
"76",
"74",
"76",
"64",
"68",
"87",
"90",
"73",
"86",
"62",
"66",
"71",
"64",
"63",
"74",
"77",
"72",
"67",
"76",
"74",
"66",
"73",
"71",
"59",
"76",
"67",
"66",
"82",
"88",
"82",
"65",
"66",
"62",
"63",
"66",
"69",
"69",
"79",
"76",
"80",
"89",
"64",
"86",
"76",
"80",
"61",
"82",
"69",
"60",
"84",
"78",
"69",
"74",
"72",
"75",
"84",
"68",
"89",
"89",
"75",
"99",
"79",
"98",
"79",
"93",
"82",
"99",
"82",
"112",
"68",
"92",
"78",
"86",
"106",
"84",
"109",
"104",
"78",
"118",
"124",
"110",
"107",
"132",
"141",
"148",
"170",
"247",
"318",
"429",
"633",
"850",
"1270",
"1818",
"2364",
"3447",
"4163",
"5712",
"6806",
"8306",
"9519",
"11064",
"12064",
"13271",
"13716",
"14612",
"14055",
"14052",
"12884",
"12184",
"10428",
"9022",
"7614",
"6343",
"4758",
"3889",
"2814",
"2046",
"1407",
"966",
"672",
"460",
"328",
"212",
"156",
"118",
"104",
"93",
"79",
"84",
"71",
"82",
"69",
"86",
"85",
"77",
"66",
"65",
"74",
"75",
"71",
"91",
"79",
"65",
"62",
"73",
"64",
"71",
"74",
"89",
"64",
"61",
"67",
"61",
"64",
"74",
"63",
"79",
"68",
"75",
"93",
"58",
"78",
"62",
"71",
"69",
"66",
"67",
"62",
"66",
"64",
"77",
"71",
"94",
"63",
"73",
"82",
"64",
"72",
"101",
"90",
"96",
"75",
"82",
"79",
"112",
"99",
"106",
"93",
"123",
"126",
"169",
"227",
"206",
"277",
"417",
"530",
"675",
"874",
"1068",
"1295",
"1573",
"1748",
"2027",
"2051",
"2366",
"2309",
"2423",
"2351",
"2300",
"2116",
"2033",
"1757",
"1620",
"1215",
"1187",
"1030",
"946",
"823",
"809",
"698",
"660",
"660",
"645",
"650",
"629",
"597",
"593",
"544",
"562",
"529",
"478",
"487",
"442",
"406",
"403",
"387",
"387",
"354",
"318",
"333",
"318",
"318",
"300",
"277",
"250",
"253",
"217",
"216",
"204",
"193",
"181",
"174",
"164",
"143",
"124",
"138",
"126",
"100",
"88",
"101",
"100",
"90",
"87",
"77",
"98",
"86",
"76",
"89",
"67",
"77",
"100",
"68",
"117",
"129",
"126",
"132",
"117",
"157",
"161",
"155",
"144",
"171",
"160",
"158",
"167",
"130",
"139",
"116",
"104",
"99",
"84",
"75",
"62",
"59",
"60",
"42",
"46",
"56",
"47",
"44",
"25350",
"Channel_info_start",
"Channel : Mg",
"Points : 0",
"Range : 0.000000 - 0.000000",
"Step : 0.010000",
"Channel_info_end",
"Channel_info_start",
"Channel : Al",
"Points : 0",
"Range : 0.000000 - 0.000000",
"Step : 0.010000",
"Channel_info_end",
"Channel_info_start",
"Channel : Si",
"Points : 0",
"Range : 0.000000 - 0.000000",
"Step : 0.010000",
"Channel_info_end",
"Channel_info_start",
"Channel : P ",
"Points : 0",
"Range : 0.000000 - 0.000000",
"Step : 0.010000",
"Channel_info_end",
"Channel_info_start",
"Channel : S ",
"Points : 0",
"Range : 0.000000 - 0.000000",
"Step : 0.010000",
"Channel_info_end",
"Channel_info_start",
"Channel : Cl",
"Points : 0",
"Range : 0.000000 - 0.000000",
"Step : 0.010000",
"Channel_info_end",
"Channel_info_start",
"Channel : K ",
"Points : 0",
"Range : 0.000000 - 0.000000",
"Step : 0.010000",
"Channel_info_end",
"Channel_info_start",
"Channel : Ca",
"Points : 0",
"Range : 0.000000 - 0.000000",
"Step : 0.010000",
"Channel_info_end",
"Channel_info_start",
"Channel : Ti",
"Points : 0",
"Range : 0.000000 - 0.000000",
"Step : 0.010000",
"Channel_info_end",
"Channel_info_start",
"Channel : V ",
"Points : 0",
"Range : 0.000000 - 0.000000",
"Step : 0.010000",
"Channel_info_end",
"Channel_info_start",
"Channel : Cr",
"Points : 0",
"Range : 0.000000 - 0.000000",
"Step : 0.010000",
"Channel_info_end",
"Channel_info_start",
"Channel : Mn",
"Points : 0",
"Range : 0.000000 - 0.000000",
"Step : 0.010000",
"Channel_info_end",
"Channel_info_start",
"Channel : Fe",
"Points : 0",
"Range : 0.000000 - 0.000000",
"Step : 0.010000",
"Channel_info_end",
"Channel_info_start",
"Channel : Cu",
"Points : 0",
"Range : 0.000000 - 0.000000",
"Step : 0.010000",
"Channel_info_end",
"Channel_info_start",
"Channel : Zn",
"Points : 0",
"Range : 0.000000 - 0.000000",
"Step : 0.010000",
"Channel_info_end",
"Channel_info_start",
"Channel : Sr",
"Points : 0",
"Range : 0.000000 - 0.000000",
"Step : 0.010000",
"Channel_info_end",
"Channel_info_start",
"Channel : Pb",
"Points : 0",
"Range : 0.000000 - 0.000000",
"Step : 0.010000",
"Channel_info_end",
"",
"Qualitative Result",
"--------------------------------------------------------------------------------",
"Element :  Sc, Nb, Ca, Rh",
"",
"Peak List",
"--------------------------------------------------------------------------------",
"Channel               Line        keV     Net Int.(cps/uA)",
"--------------------------------------------------------------------------------",
"Na                    ScLa         0.41     0.017",
"                      ----         0.50     0.013",
"                      ----         1.91     0.051",
"                      NbLa         2.17     0.778",
"                      CaKa         3.70     0.160",
"                      CaKb         4.03     0.020",
"                      NbKa        16.56     7.320",
"                      NbKb        18.57     1.144",
"                      ----        18.98     0.155",
"                      RhKa        20.05     0.056",
"--------------------------------------------------------------------------------",
"",
"Quantitative Result",
"--------------------------------------------------------------------------------",
"Analyte               Result             Std.Dev. Proc.-Calc. Line Intensity(cps/uA)",
"--------------------------------------------------------------------------------",
"====[No. 1 Layer]====< Layer1               >===============================",
"Layer1                   0.000 ug/cm2    -------- Flux       -------- --------",