File: inputs/edxCalibration/edx_raw/2010-06/Ni 15757.20100525220555.csv
"Sample    : Ni 15757",
"Operator  : luisf",
"Comment  : cubatao-g-policarbonato",
"Group     : kerr2007ag180cal_lt",
"Date       : 2010-05-25 22:01:53",
"",
"Mesurement Condition",
"------------------------------------------------------------------------------------",
"Instrument : 700HS2   Atmosphere : Vac.   Collimator : 10(mm)   Spin : No",
"------------------------------------------------------------------------------------",
"Analyte               TG kV   uA      FI Acq.(keV)  Anal.(keV)  Time(sec)     DT(%)",
"------------------------------------------------------------------------------------",
"Na                    Rh 50  152-Auto Al  0 - 20    0.8 - 1.2   Live -  179   15",
"",
"<Profile>",
"Channel_info_start",
"Channel : Na",
"Points : 2048",
"Range : 0.000000 - 20.48",
"Step : 0.010000",
"Channel_info_end",
"0",
"0",
"0",
"0",
"0",
"0",
"0",
"0",
"0",
"0",
"0",
"0",
"0",
"0",
"0",
"5",
"17",
"3",
"8",
"14",
"10",
"4",
"12",
"4",
"7",
"7",
"10",
"5",
"9",
"9",
"9",
"16",
"4",
"8",
"14",
"5",
"23",
"21",
"23",
"30",
"46",
"65",
"96",
"124",
"100",
"95",
"89",
"58",
"33",
"20",
"17",
"12",
"14",
"11",
"9",
"5",
"7",
"5",
"5",
"10",
"10",
"8",
"5",
"12",
"7",
"13",
"10",
"7",
"10",
"14",
"3",
"12",
"14",
"18",
"17",
"9",
"12",
"10",
"10",
"3",
"5",
"9",
"8",
"10",
"17",
"15",
"27",
"21",
"21",
"21",
"10",
"12",
"10",
"7",
"10",
"18",
"16",
"14",
"37",
"37",
"34",
"33",
"25",
"21",
"25",
"15",
"15",
"12",
"7",
"8",
"4",
"13",
"14",
"11",
"16",
"15",
"9",
"17",
"11",
"7",
"3",
"9",
"11",
"11",
"4",
"11",
"10",
"14",
"10",
"3",
"9",
"16",
"13",
"8",
"10",
"15",
"14",
"4",
"18",
"14",
"9",
"13",
"15",
"8",
"7",
"12",
"13",
"2",
"14",
"10",
"8",
"4",
"8",
"12",
"9",
"14",
"18",
"10",
"9",
"10",
"5",
"5",
"15",
"11",
"15",
"16",
"9",
"12",
"13",
"15",
"11",
"12",
"13",
"17",
"12",
"17",
"25",
"46",
"42",
"85",
"118",
"189",
"289",
"305",
"364",
"330",
"317",
"247",
"183",
"105",
"66",
"53",
"35",
"37",
"42",
"41",
"27",
"66",
"50",
"68",
"66",
"75",
"54",
"41",
"49",
"41",
"23",
"23",
"17",
"17",
"17",
"17",
"21",
"30",
"13",
"21",
"26",
"33",
"26",
"22",
"33",
"35",
"26",
"26",
"28",
"32",
"41",
"30",
"33",
"36",
"27",
"40",
"34",
"28",
"38",
"22",
"25",
"38",
"35",
"25",
"27",
"25",
"32",
"22",
"27",
"16",
"29",
"20",
"17",
"26",
"23",
"21",
"29",
"34",
"23",
"24",
"28",
"32",
"33",
"24",
"26",
"30",
"20",
"30",
"24",
"21",
"42",
"30",
"41",
"40",
"29",
"30",
"41",
"37",
"36",
"34",
"35",
"48",
"46",
"40",
"41",
"50",
"77",
"84",
"113",
"109",
"125",
"99",
"118",
"101",
"85",
"73",
"47",
"43",
"39",
"48",
"50",
"47",
"53",
"61",
"51",
"56",
"55",
"46",
"52",
"56",
"49",
"61",
"63",
"56",
"80",
"59",
"87",
"72",
"95",
"93",
"92",
"100",
"105",
"92",
"95",
"89",
"96",
"91",
"78",
"76",
"73",
"88",
"87",
"76",
"93",
"67",
"74",
"61",
"73",
"66",
"54",
"70",
"68",
"95",
"65",
"53",
"79",
"60",
"83",
"73",
"97",
"93",
"98",
"84",
"85",
"93",
"116",
"120",
"112",
"133",
"146",
"153",
"163",
"159",
"187",
"253",
"398",
"638",
"1207",
"2136",
"3955",
"6482",
"10628",
"14781",
"20713",
"25206",
"30097",
"30988",
"31491",
"27656",
"24151",
"18210",
"13683",
"9049",
"5641",
"3265",
"1780",
"859",
"481",
"260",
"161",
"124",
"146",
"105",
"106",
"120",
"96",
"110",
"122",
"105",
"127",
"127",
"151",
"161",
"186",
"174",
"231",
"316",
"399",
"649",
"929",
"1354",
"1987",
"2379",
"3217",
"3631",
"4040",
"4046",
"3845",
"3354",
"2860",
"2100",
"1608",
"1084",
"718",
"464",
"282",
"176",
"126",
"73",
"67",
"68",
"92",
"75",
"89",
"79",
"92",
"85",
"92",
"92",
"73",
"63",
"59",
"52",
"58",
"47",
"59",
"48",
"58",
"55",
"61",
"60",
"60",
"70",
"58",
"45",
"45",
"41",
"47",
"39",
"45",
"50",
"66",
"49",
"45",
"49",
"49",
"65",
"55",
"48",
"46",
"60",
"67",
"48",
"58",
"72",
"62",
"71",
"63",
"62",
"51",
"55",
"67",
"63",
"70",
"62",
"84",
"47",
"67",
"55",
"59",
"54",
"64",
"49",
"56",
"47",
"64",
"70",
"49",
"42",
"59",
"63",
"55",
"70",
"61",
"68",
"51",
"42",
"52",
"63",
"56",
"51",
"43",
"60",
"56",
"59",
"72",
"53",
"41",
"41",
"60",
"50",
"52",
"43",
"59",
"54",
"34",
"52",
"49",
"54",
"38",
"47",
"61",
"58",
"55",
"52",
"64",
"64",
"56",
"47",
"48",
"40",
"53",
"54",
"55",
"47",
"61",
"52",
"62",
"46",
"41",
"47",
"56",
"54",
"50",
"48",
"45",
"59",
"40",
"47",
"42",
"51",
"50",
"51",
"58",
"46",
"46",
"65",
"56",
"54",
"49",
"62",
"52",
"61",
"54",
"42",
"50",
"66",
"60",
"42",
"47",
"49",
"54",
"43",
"35",
"46",
"55",
"55",
"51",
"40",
"60",
"51",
"40",
"47",
"63",
"49",
"51",
"48",
"47",
"51",
"55",
"40",
"63",
"40",
"56",
"36",
"45",
"47",
"60",
"62",
"36",
"42",
"42",
"43",
"43",
"49",
"50",
"48",
"45",
"58",
"47",
"47",
"54",
"43",
"56",
"52",
"37",
"35",
"41",
"39",
"40",
"46",
"55",
"41",
"55",
"53",
"47",
"61",
"47",
"52",
"58",
"52",
"42",
"51",
"53",
"49",
"64",
"40",
"52",
"48",
"45",
"50",
"53",
"40",
"49",
"49",
"36",
"37",
"53",
"47",
"67",
"56",
"40",
"55",
"52",
"48",
"47",
"35",
"41",
"43",
"51",
"49",
"55",
"46",
"48",
"38",
"48",
"61",
"36",
"43",
"34",
"56",
"56",
"34",
"56",
"49",
"42",
"42",
"54",
"43",
"48",
"39",
"47",
"48",
"51",
"36",
"25",
"45",
"51",
"38",
"42",
"40",
"36",
"39",
"50",
"45",
"49",
"43",
"51",
"49",
"37",
"41",
"45",
"47",
"34",
"41",
"46",
"43",
"50",
"49",
"35",
"41",
"35",
"39",
"46",
"47",
"39",
"34",
"49",
"39",
"46",
"41",
"34",
"43",
"41",
"40",
"33",
"41",
"29",
"37",
"46",
"39",
"52",
"48",
"63",
"58",
"66",
"58",
"84",
"89",
"65",
"79",
"76",
"74",
"63",
"70",
"65",
"76",
"58",
"53",
"38",
"39",
"38",
"48",
"49",
"36",
"34",
"41",
"36",
"38",
"39",
"45",
"38",
"30",
"36",
"32",
"28",
"36",
"33",
"35",
"24",
"41",
"39",
"33",
"47",
"33",
"45",
"40",
"46",
"59",
"46",
"52",
"58",
"56",
"61",
"35",
"47",
"36",
"52",
"29",
"32",
"33",
"38",
"30",
"34",
"39",
"30",
"18",
"39",
"32",
"43",
"34",
"40",
"37",
"50",
"36",
"39",
"36",
"46",
"28",
"33",
"37",
"35",
"43",
"33",
"41",
"32",
"39",
"37",
"43",
"32",
"25",
"24",
"33",
"32",
"32",
"35",
"35",
"39",
"29",
"34",
"34",
"28",
"40",
"35",
"35",
"39",
"38",
"36",
"26",
"30",
"47",
"28",
"25",
"38",
"30",
"30",
"39",
"26",
"30",
"43",
"37",
"38",
"26",
"36",
"37",
"38",
"39",
"39",
"25",
"20",
"38",
"38",
"32",
"39",
"39",
"28",
"30",
"35",
"26",
"34",
"38",
"37",
"33",
"34",
"30",
"46",
"34",
"37",
"22",
"35",
"29",
"32",
"41",
"33",
"37",
"37",
"25",
"30",
"40",
"38",
"34",
"41",
"23",
"37",
"25",
"42",
"36",
"35",
"37",
"41",
"36",
"37",
"37",
"38",
"39",
"53",
"40",
"38",
"45",
"35",
"37",
"55",
"26",
"47",
"43",
"32",
"38",
"40",
"49",
"50",
"59",
"46",
"49",
"62",
"60",
"52",
"63",
"53",
"83",
"85",
"79",
"90",
"104",
"104",
"85",
"114",
"116",
"127",
"135",
"150",
"131",
"162",
"168",
"221",
"198",
"212",
"204",
"215",
"225",
"237",
"252",
"234",
"213",
"239",
"234",
"224",
"229",
"211",
"199",
"211",
"199",
"173",
"131",
"176",
"155",
"138",
"131",
"137",
"101",
"130",
"97",
"92",
"88",
"90",
"72",
"70",
"68",
"60",
"50",
"50",
"54",
"58",
"47",
"53",
"55",
"90",
"65",
"60",
"80",
"84",
"91",
"110",
"103",
"96",
"123",
"109",
"122",
"135",
"130",
"124",
"92",
"116",
"91",
"96",
"65",
"71",
"59",
"47",
"40",
"33",
"38",
"40",
"37",
"29",
"27",
"38",
"33",
"16501",
"Channel_info_start",
"Channel : Mg",
"Points : 0",
"Range : 0.000000 - 0.000000",
"Step : 0.010000",
"Channel_info_end",
"Channel_info_start",
"Channel : Al",
"Points : 0",
"Range : 0.000000 - 0.000000",
"Step : 0.010000",
"Channel_info_end",
"Channel_info_start",
"Channel : Si",
"Points : 0",
"Range : 0.000000 - 0.000000",
"Step : 0.010000",
"Channel_info_end",
"Channel_info_start",
"Channel : P ",
"Points : 0",
"Range : 0.000000 - 0.000000",
"Step : 0.010000",
"Channel_info_end",
"Channel_info_start",
"Channel : S ",
"Points : 0",
"Range : 0.000000 - 0.000000",
"Step : 0.010000",
"Channel_info_end",
"Channel_info_start",
"Channel : Cl",
"Points : 0",
"Range : 0.000000 - 0.000000",
"Step : 0.010000",
"Channel_info_end",
"Channel_info_start",
"Channel : K ",
"Points : 0",
"Range : 0.000000 - 0.000000",
"Step : 0.010000",
"Channel_info_end",
"Channel_info_start",
"Channel : Ca",
"Points : 0",
"Range : 0.000000 - 0.000000",
"Step : 0.010000",
"Channel_info_end",
"Channel_info_start",
"Channel : Ti",
"Points : 0",
"Range : 0.000000 - 0.000000",
"Step : 0.010000",
"Channel_info_end",
"Channel_info_start",
"Channel : V ",
"Points : 0",
"Range : 0.000000 - 0.000000",
"Step : 0.010000",
"Channel_info_end",
"Channel_info_start",
"Channel : Cr",
"Points : 0",
"Range : 0.000000 - 0.000000",
"Step : 0.010000",
"Channel_info_end",
"Channel_info_start",
"Channel : Mn",
"Points : 0",
"Range : 0.000000 - 0.000000",
"Step : 0.010000",
"Channel_info_end",
"Channel_info_start",
"Channel : Fe",
"Points : 0",
"Range : 0.000000 - 0.000000",
"Step : 0.010000",
"Channel_info_end",
"Channel_info_start",
"Channel : Cu",
"Points : 0",
"Range : 0.000000 - 0.000000",
"Step : 0.010000",
"Channel_info_end",
"Channel_info_start",
"Channel : Zn",
"Points : 0",
"Range : 0.000000 - 0.000000",
"Step : 0.010000",
"Channel_info_end",
"Channel_info_start",
"Channel : Sr",
"Points : 0",
"Range : 0.000000 - 0.000000",
"Step : 0.010000",
"Channel_info_end",
"Channel_info_start",
"Channel : Pb",
"Points : 0",
"Range : 0.000000 - 0.000000",
"Step : 0.010000",
"Channel_info_end",
"",
"Qualitative Result",
"--------------------------------------------------------------------------------",
"Element :  Ni, P , Ca",
"",
"Peak List",
"--------------------------------------------------------------------------------",
"Channel               Line        keV     Net Int.(cps/uA)",
"--------------------------------------------------------------------------------",
"Na                    NiLa         0.86     0.045",
"                      P Ka         1.99     0.012",
"                      CaKa         3.68     0.189",
"                      CaKb         4.02     0.024",
"                      NiKaESC      5.76     0.049",
"                      NiKa         7.47    19.250",
"                      NiKb         8.26     2.573",
"                      NiKaSUM     14.88     0.037",
"                      ----        19.13     0.135",
"                      ----        19.43     0.064",
"                      ----        19.96     0.053",
"--------------------------------------------------------------------------------",
"",
"Quantitative Result",
"--------------------------------------------------------------------------------",
"Analyte               Result             Std.Dev. Proc.-Calc. Line Intensity(cps/uA)",
"--------------------------------------------------------------------------------",
"====[No. 1 Layer]====< Layer1               >===============================",
"Layer1                   0.000 ug/cm2    -------- Flux       -------- --------",