File: inputs/edxCalibration/edx_raw/2010-06/Pg 15772.20100611041543.csv
"Sample    : Pg 15772",
"Operator  : Luís",
"Comment  : cubatao-g-policarbonato",
"Group     : kerr2007ag180cal_lt",
"Date       : 2010-06-11 04:11:40",
"",
"Mesurement Condition",
"------------------------------------------------------------------------------------",
"Instrument : 700HS2   Atmosphere : Vac.   Collimator : 10(mm)   Spin : No",
"------------------------------------------------------------------------------------",
"Analyte               TG kV   uA      FI Acq.(keV)  Anal.(keV)  Time(sec)     DT(%)",
"------------------------------------------------------------------------------------",
"Na                    Rh 50  152-Auto Al  0 - 20    0.8 - 1.2   Live -  179   15",
"",
"<Profile>",
"Channel_info_start",
"Channel : Na",
"Points : 2048",
"Range : 0.000000 - 20.48",
"Step : 0.010000",
"Channel_info_end",
"0",
"0",
"0",
"0",
"0",
"0",
"0",
"0",
"0",
"0",
"0",
"0",
"0",
"0",
"0",
"8",
"29",
"36",
"23",
"27",
"22",
"24",
"43",
"24",
"35",
"30",
"38",
"63",
"49",
"84",
"87",
"89",
"89",
"104",
"75",
"89",
"68",
"44",
"38",
"35",
"29",
"29",
"44",
"33",
"33",
"29",
"37",
"39",
"24",
"33",
"35",
"28",
"30",
"23",
"30",
"22",
"27",
"39",
"27",
"20",
"25",
"23",
"29",
"14",
"29",
"27",
"33",
"29",
"38",
"31",
"38",
"41",
"27",
"20",
"34",
"31",
"26",
"33",
"26",
"31",
"35",
"38",
"42",
"42",
"43",
"46",
"50",
"91",
"152",
"194",
"242",
"294",
"305",
"299",
"248",
"215",
"146",
"155",
"154",
"140",
"151",
"144",
"152",
"154",
"165",
"196",
"184",
"235",
"245",
"295",
"287",
"346",
"479",
"812",
"1380",
"2076",
"3054",
"3719",
"4227",
"4152",
"4001",
"3740",
"3559",
"2936",
"2440",
"1831",
"1247",
"773",
"503",
"351",
"313",
"370",
"441",
"443",
"421",
"305",
"232",
"154",
"144",
"105",
"95",
"60",
"67",
"73",
"56",
"57",
"60",
"57",
"55",
"73",
"118",
"81",
"115",
"131",
"162",
"168",
"175",
"156",
"138",
"118",
"110",
"67",
"52",
"39",
"34",
"24",
"30",
"25",
"20",
"24",
"20",
"36",
"21",
"25",
"31",
"27",
"40",
"50",
"54",
"90",
"124",
"178",
"239",
"287",
"347",
"305",
"323",
"231",
"154",
"110",
"63",
"61",
"54",
"29",
"41",
"33",
"31",
"50",
"47",
"56",
"47",
"61",
"41",
"43",
"37",
"37",
"25",
"21",
"18",
"21",
"20",
"20",
"26",
"25",
"26",
"20",
"26",
"23",
"30",
"30",
"35",
"31",
"27",
"39",
"37",
"29",
"42",
"42",
"39",
"36",
"49",
"46",
"37",
"31",
"39",
"40",
"47",
"38",
"40",
"39",
"40",
"36",
"40",
"38",
"44",
"36",
"40",
"56",
"37",
"43",
"37",
"42",
"42",
"48",
"50",
"49",
"39",
"37",
"39",
"40",
"48",
"33",
"42",
"40",
"42",
"38",
"37",
"46",
"38",
"40",
"40",
"40",
"42",
"25",
"31",
"41",
"61",
"41",
"50",
"39",
"41",
"66",
"41",
"59",
"43",
"47",
"36",
"62",
"57",
"49",
"78",
"56",
"65",
"70",
"73",
"65",
"56",
"57",
"76",
"76",
"76",
"60",
"72",
"70",
"67",
"72",
"65",
"69",
"66",
"72",
"66",
"86",
"66",
"65",
"91",
"72",
"90",
"104",
"85",
"87",
"88",
"106",
"90",
"88",
"114",
"100",
"93",
"80",
"101",
"88",
"106",
"94",
"90",
"80",
"84",
"97",
"86",
"82",
"87",
"85",
"84",
"82",
"79",
"95",
"84",
"82",
"103",
"98",
"81",
"82",
"79",
"104",
"78",
"86",
"98",
"84",
"98",
"87",
"86",
"91",
"72",
"72",
"78",
"74",
"81",
"74",
"91",
"81",
"89",
"72",
"89",
"79",
"77",
"80",
"94",
"107",
"110",
"75",
"99",
"112",
"97",
"110",
"76",
"87",
"94",
"90",
"102",
"100",
"103",
"102",
"101",
"103",
"98",
"80",
"100",
"104",
"120",
"130",
"136",
"116",
"123",
"118",
"137",
"129",
"102",
"126",
"123",
"105",
"94",
"110",
"106",
"85",
"107",
"91",
"84",
"78",
"95",
"73",
"107",
"104",
"100",
"91",
"79",
"84",
"82",
"108",
"105",
"115",
"116",
"107",
"152",
"121",
"131",
"134",
"152",
"134",
"117",
"107",
"127",
"110",
"105",
"115",
"121",
"104",
"114",
"114",
"110",
"127",
"129",
"144",
"156",
"203",
"226",
"317",
"390",
"513",
"497",
"647",
"677",
"708",
"684",
"606",
"586",
"462",
"388",
"318",
"249",
"194",
"161",
"124",
"134",
"113",
"131",
"115",
"94",
"82",
"94",
"107",
"112",
"106",
"94",
"113",
"88",
"98",
"92",
"108",
"100",
"94",
"93",
"101",
"103",
"97",
"95",
"103",
"95",
"97",
"118",
"92",
"85",
"105",
"116",
"108",
"119",
"103",
"125",
"115",
"139",
"111",
"114",
"136",
"145",
"176",
"227",
"267",
"411",
"551",
"857",
"1331",
"1900",
"2658",
"3654",
"4709",
"6164",
"7536",
"8924",
"9614",
"10513",
"10196",
"10266",
"9106",
"8221",
"6662",
"5472",
"3907",
"2899",
"1964",
"1205",
"765",
"490",
"337",
"244",
"167",
"140",
"114",
"130",
"106",
"134",
"116",
"106",
"117",
"111",
"98",
"92",
"92",
"93",
"88",
"94",
"115",
"121",
"119",
"150",
"158",
"165",
"196",
"233",
"216",
"248",
"245",
"217",
"213",
"189",
"201",
"170",
"159",
"127",
"116",
"94",
"79",
"75",
"103",
"76",
"86",
"92",
"87",
"82",
"88",
"92",
"85",
"88",
"105",
"101",
"82",
"97",
"101",
"105",
"114",
"86",
"116",
"138",
"142",
"158",
"143",
"208",
"244",
"260",
"249",
"318",
"329",
"397",
"384",
"414",
"467",
"539",
"539",
"548",
"543",
"544",
"588",
"638",
"790",
"965",
"1304",
"1778",
"2338",
"3295",
"4021",
"4861",
"5564",
"6481",
"6587",
"6999",
"6721",
"6463",
"5864",
"5211",
"4364",
"3799",
"2848",
"2351",
"1669",
"1343",
"949",
"825",
"678",
"587",
"489",
"465",
"418",
"467",
"383",
"386",
"354",
"338",
"308",
"291",
"268",
"228",
"198",
"178",
"145",
"123",
"108",
"114",
"105",
"87",
"106",
"95",
"94",
"102",
"95",
"86",
"85",
"61",
"88",
"79",
"76",
"77",
"79",
"67",
"66",
"60",
"69",
"59",
"56",
"76",
"66",
"50",
"65",
"53",
"61",
"59",
"56",
"65",
"62",
"79",
"55",
"69",
"63",
"65",
"53",
"64",
"61",
"55",
"70",
"76",
"69",
"78",
"74",
"87",
"77",
"100",
"89",
"79",
"94",
"90",
"100",
"105",
"87",
"87",
"97",
"91",
"81",
"86",
"102",
"99",
"131",
"162",
"172",
"244",
"317",
"467",
"461",
"650",
"772",
"894",
"936",
"1028",
"1015",
"1025",
"1003",
"900",
"784",
"755",
"576",
"522",
"387",
"320",
"295",
"270",
"267",
"239",
"235",
"296",
"259",
"321",
"325",
"329",
"368",
"359",
"335",
"354",
"297",
"306",
"223",
"233",
"154",
"167",
"133",
"129",
"103",
"74",
"64",
"78",
"73",
"65",
"57",
"70",
"56",
"49",
"69",
"66",
"76",
"76",
"70",
"87",
"74",
"90",
"87",
"85",
"87",
"82",
"57",
"75",
"61",
"62",
"63",
"68",
"51",
"57",
"48",
"35",
"44",
"43",
"48",
"46",
"47",
"49",
"43",
"35",
"39",
"48",
"42",
"39",
"48",
"48",
"44",
"47",
"39",
"52",
"38",
"57",
"47",
"51",
"41",
"43",
"46",
"51",
"36",
"46",
"44",
"52",
"46",
"47",
"34",
"51",
"37",
"50",
"36",
"50",
"39",
"41",
"41",
"43",
"43",
"36",
"44",
"48",
"49",
"46",
"44",
"55",
"44",
"43",
"62",
"41",
"43",
"43",
"43",
"42",
"40",
"43",
"41",
"56",
"55",
"41",
"40",
"48",
"42",
"55",
"42",
"46",
"43",
"54",
"35",
"50",
"34",
"41",
"47",
"44",
"42",
"40",
"41",
"48",
"38",
"38",
"47",
"53",
"39",
"37",
"46",
"51",
"52",
"42",
"38",
"53",
"50",
"37",
"42",
"47",
"41",
"46",
"53",
"38",
"47",
"41",
"44",
"55",
"48",
"40",
"51",
"56",
"38",
"56",
"48",
"46",
"42",
"39",
"60",
"47",
"53",
"50",
"69",
"56",
"44",
"66",
"64",
"61",
"61",
"56",
"74",
"67",
"51",
"59",
"75",
"60",
"74",
"75",
"97",
"111",
"110",
"108",
"118",
"115",
"126",
"164",
"143",
"140",
"166",
"175",
"177",
"187",
"202",
"208",
"211",
"226",
"225",
"239",
"214",
"244",
"214",
"222",
"238",
"248",
"233",
"241",
"213",
"205",
"193",
"182",
"175",
"177",
"165",
"140",
"132",
"156",
"120",
"116",
"94",
"91",
"95",
"90",
"78",
"79",
"82",
"55",
"55",
"67",
"67",
"66",
"60",
"65",
"75",
"87",
"92",
"120",
"139",
"177",
"151",
"168",
"208",
"204",
"256",
"220",
"249",
"246",
"223",
"245",
"217",
"202",
"177",
"161",
"142",
"128",
"125",
"107",
"52",
"67",
"57",
"61",
"42",
"41",
"39",
"46",
"29",
"20391",
"Channel_info_start",
"Channel : Mg",
"Points : 0",
"Range : 0.000000 - 0.000000",
"Step : 0.010000",
"Channel_info_end",
"Channel_info_start",
"Channel : Al",
"Points : 0",
"Range : 0.000000 - 0.000000",
"Step : 0.010000",
"Channel_info_end",
"Channel_info_start",
"Channel : Si",
"Points : 0",
"Range : 0.000000 - 0.000000",
"Step : 0.010000",
"Channel_info_end",
"Channel_info_start",
"Channel : P ",
"Points : 0",
"Range : 0.000000 - 0.000000",
"Step : 0.010000",
"Channel_info_end",
"Channel_info_start",
"Channel : S ",
"Points : 0",
"Range : 0.000000 - 0.000000",
"Step : 0.010000",
"Channel_info_end",
"Channel_info_start",
"Channel : Cl",
"Points : 0",
"Range : 0.000000 - 0.000000",
"Step : 0.010000",
"Channel_info_end",
"Channel_info_start",
"Channel : K ",
"Points : 0",
"Range : 0.000000 - 0.000000",
"Step : 0.010000",
"Channel_info_end",
"Channel_info_start",
"Channel : Ca",
"Points : 0",
"Range : 0.000000 - 0.000000",
"Step : 0.010000",
"Channel_info_end",
"Channel_info_start",
"Channel : Ti",
"Points : 0",
"Range : 0.000000 - 0.000000",
"Step : 0.010000",
"Channel_info_end",
"Channel_info_start",
"Channel : V ",
"Points : 0",
"Range : 0.000000 - 0.000000",
"Step : 0.010000",
"Channel_info_end",
"Channel_info_start",
"Channel : Cr",
"Points : 0",
"Range : 0.000000 - 0.000000",
"Step : 0.010000",
"Channel_info_end",
"Channel_info_start",
"Channel : Mn",
"Points : 0",
"Range : 0.000000 - 0.000000",
"Step : 0.010000",
"Channel_info_end",
"Channel_info_start",
"Channel : Fe",
"Points : 0",
"Range : 0.000000 - 0.000000",
"Step : 0.010000",
"Channel_info_end",
"Channel_info_start",
"Channel : Cu",
"Points : 0",
"Range : 0.000000 - 0.000000",
"Step : 0.010000",
"Channel_info_end",
"Channel_info_start",
"Channel : Zn",
"Points : 0",
"Range : 0.000000 - 0.000000",
"Step : 0.010000",
"Channel_info_end",
"Channel_info_start",
"Channel : Sr",
"Points : 0",
"Range : 0.000000 - 0.000000",
"Step : 0.010000",
"Channel_info_end",
"Channel_info_start",
"Channel : Pb",
"Points : 0",
"Range : 0.000000 - 0.000000",
"Step : 0.010000",
"Channel_info_end",
"",
"Qualitative Result",
"--------------------------------------------------------------------------------",
"Element :  Pb, S , Cl, Ir, Ru",
"",
"Peak List",
"--------------------------------------------------------------------------------",
"Channel               Line        keV     Net Int.(cps/uA)",
"--------------------------------------------------------------------------------",
"Na                    ----         0.66     0.026",
"                      ----         1.84     0.095",
"                      PbMa         2.37     1.299",
"                      S Ka         2.37     0.588",
"                      ClKa         2.67     0.158",
"                      ----         3.11     0.061",
"                      ----         3.68     0.166",
"                      PbLL         9.17     0.289",
"                      IrLa         9.17     0.126",
"                      PbLa        10.52     7.216",
"                      PbLn        11.29     0.105",
"                      PbLb4       12.26     0.158",
"                      PbLb1       12.60     4.925",
"                      IrLg3       12.99     0.099",
"                      PbLg1       14.75     0.724",
"                      PbLg2       15.13     0.193",
"                      ----        19.12     0.145",
"                      RuKa        19.34     0.108",
"                      ----        19.96     0.109",
"--------------------------------------------------------------------------------",
"",
"Quantitative Result",
"--------------------------------------------------------------------------------",
"Analyte               Result             Std.Dev. Proc.-Calc. Line Intensity(cps/uA)",
"--------------------------------------------------------------------------------",
"====[No. 1 Layer]====< Layer1               >===============================",
"Layer1                   0.000 ug/cm2    -------- Flux       -------- --------",