File: inputs/edxCalibration/edx_raw/2010-06/Pg 15772.20100626151506.csv
"Sample    : Pg 15772",
"Operator  : thiago",
"Comment  : cubatao-g-policarbonato",
"Group     : kerr2007ag180cal_lt",
"Date       : 2010-06-26 15:11:04",
"",
"Mesurement Condition",
"------------------------------------------------------------------------------------",
"Instrument : 700HS2   Atmosphere : Vac.   Collimator : 10(mm)   Spin : No",
"------------------------------------------------------------------------------------",
"Analyte               TG kV   uA      FI Acq.(keV)  Anal.(keV)  Time(sec)     DT(%)",
"------------------------------------------------------------------------------------",
"Na                    Rh 50  152-Auto Al  0 - 20    0.8 - 1.2   Live -  179   15",
"",
"<Profile>",
"Channel_info_start",
"Channel : Na",
"Points : 2048",
"Range : 0.000000 - 20.48",
"Step : 0.010000",
"Channel_info_end",
"0",
"0",
"0",
"0",
"0",
"0",
"0",
"0",
"0",
"0",
"0",
"0",
"0",
"0",
"1",
"9",
"26",
"29",
"25",
"22",
"23",
"27",
"25",
"27",
"24",
"36",
"40",
"50",
"57",
"76",
"90",
"100",
"78",
"91",
"87",
"89",
"82",
"52",
"51",
"37",
"28",
"24",
"21",
"40",
"34",
"37",
"35",
"31",
"26",
"31",
"23",
"31",
"21",
"23",
"24",
"26",
"25",
"18",
"36",
"33",
"30",
"27",
"33",
"24",
"23",
"38",
"33",
"23",
"26",
"31",
"35",
"38",
"26",
"21",
"29",
"44",
"34",
"31",
"35",
"34",
"30",
"29",
"55",
"49",
"41",
"48",
"56",
"79",
"103",
"165",
"255",
"324",
"306",
"276",
"232",
"207",
"157",
"136",
"149",
"144",
"133",
"136",
"145",
"144",
"145",
"154",
"172",
"224",
"242",
"283",
"320",
"325",
"464",
"680",
"1239",
"2049",
"3024",
"3623",
"4194",
"4223",
"4082",
"3696",
"3570",
"3027",
"2410",
"1825",
"1322",
"801",
"485",
"357",
"358",
"356",
"401",
"429",
"411",
"358",
"282",
"184",
"124",
"82",
"74",
"72",
"78",
"81",
"59",
"55",
"60",
"73",
"73",
"69",
"79",
"95",
"118",
"127",
"176",
"180",
"166",
"147",
"125",
"121",
"91",
"87",
"51",
"35",
"28",
"34",
"20",
"22",
"26",
"21",
"29",
"30",
"22",
"25",
"27",
"24",
"42",
"41",
"53",
"80",
"130",
"170",
"247",
"329",
"309",
"362",
"314",
"224",
"193",
"120",
"76",
"49",
"31",
"46",
"46",
"24",
"34",
"37",
"50",
"47",
"51",
"73",
"46",
"47",
"36",
"37",
"30",
"26",
"18",
"17",
"27",
"33",
"23",
"22",
"22",
"23",
"25",
"23",
"33",
"27",
"24",
"37",
"38",
"34",
"35",
"28",
"31",
"38",
"30",
"54",
"46",
"39",
"41",
"51",
"38",
"33",
"43",
"31",
"52",
"40",
"47",
"43",
"35",
"37",
"39",
"50",
"46",
"53",
"46",
"44",
"55",
"30",
"41",
"53",
"54",
"54",
"36",
"40",
"47",
"38",
"46",
"46",
"36",
"51",
"37",
"28",
"43",
"36",
"46",
"61",
"46",
"49",
"47",
"47",
"49",
"40",
"37",
"42",
"39",
"48",
"49",
"48",
"50",
"53",
"50",
"55",
"77",
"59",
"43",
"44",
"75",
"50",
"70",
"50",
"54",
"48",
"60",
"65",
"68",
"53",
"73",
"76",
"63",
"62",
"73",
"70",
"63",
"68",
"68",
"62",
"72",
"60",
"64",
"73",
"78",
"72",
"93",
"87",
"81",
"116",
"82",
"81",
"102",
"74",
"82",
"95",
"95",
"110",
"93",
"83",
"107",
"87",
"83",
"94",
"94",
"82",
"92",
"92",
"83",
"74",
"93",
"88",
"62",
"77",
"92",
"73",
"87",
"94",
"82",
"88",
"89",
"86",
"90",
"104",
"79",
"94",
"76",
"92",
"75",
"101",
"73",
"68",
"69",
"75",
"80",
"68",
"72",
"113",
"77",
"72",
"100",
"89",
"80",
"90",
"81",
"104",
"107",
"86",
"86",
"90",
"92",
"102",
"102",
"87",
"103",
"88",
"88",
"110",
"91",
"83",
"110",
"80",
"98",
"104",
"100",
"118",
"106",
"103",
"107",
"127",
"116",
"121",
"137",
"136",
"116",
"120",
"117",
"108",
"102",
"99",
"93",
"103",
"110",
"73",
"81",
"86",
"97",
"78",
"108",
"99",
"69",
"101",
"79",
"98",
"101",
"107",
"105",
"101",
"133",
"137",
"137",
"125",
"133",
"114",
"139",
"117",
"126",
"103",
"113",
"106",
"119",
"94",
"113",
"114",
"101",
"99",
"113",
"115",
"107",
"113",
"140",
"192",
"211",
"278",
"377",
"445",
"526",
"597",
"667",
"655",
"704",
"595",
"589",
"513",
"410",
"364",
"232",
"201",
"157",
"134",
"160",
"127",
"87",
"126",
"126",
"115",
"111",
"98",
"108",
"108",
"103",
"98",
"95",
"82",
"101",
"86",
"88",
"95",
"117",
"102",
"98",
"113",
"105",
"114",
"105",
"87",
"110",
"99",
"119",
"95",
"108",
"94",
"102",
"114",
"117",
"102",
"111",
"92",
"118",
"136",
"146",
"138",
"213",
"246",
"370",
"515",
"706",
"1016",
"1593",
"2199",
"3135",
"4266",
"5369",
"6712",
"8301",
"9316",
"10435",
"10174",
"10383",
"9533",
"8889",
"7529",
"6056",
"4658",
"3486",
"2400",
"1617",
"1019",
"652",
"424",
"300",
"218",
"169",
"130",
"125",
"120",
"110",
"98",
"87",
"107",
"86",
"94",
"97",
"83",
"115",
"93",
"113",
"110",
"114",
"114",
"137",
"163",
"170",
"197",
"180",
"227",
"208",
"222",
"229",
"243",
"219",
"176",
"162",
"142",
"151",
"124",
"99",
"121",
"97",
"87",
"92",
"99",
"98",
"92",
"83",
"78",
"91",
"81",
"108",
"79",
"88",
"95",
"110",
"91",
"100",
"88",
"128",
"105",
"112",
"127",
"144",
"179",
"162",
"194",
"224",
"261",
"273",
"300",
"371",
"374",
"414",
"443",
"506",
"522",
"517",
"528",
"522",
"538",
"576",
"655",
"821",
"1122",
"1570",
"1865",
"2916",
"3315",
"4524",
"5089",
"6033",
"6458",
"7044",
"6973",
"6949",
"6043",
"5865",
"4970",
"4039",
"3283",
"2614",
"1972",
"1620",
"1205",
"943",
"731",
"636",
"530",
"501",
"446",
"435",
"404",
"421",
"371",
"359",
"337",
"295",
"270",
"261",
"211",
"203",
"180",
"140",
"102",
"116",
"123",
"111",
"111",
"115",
"105",
"108",
"87",
"102",
"90",
"85",
"79",
"101",
"95",
"89",
"63",
"72",
"62",
"62",
"61",
"66",
"54",
"53",
"53",
"77",
"63",
"54",
"66",
"83",
"54",
"64",
"59",
"65",
"59",
"56",
"57",
"57",
"66",
"62",
"60",
"51",
"67",
"60",
"74",
"70",
"75",
"67",
"78",
"91",
"90",
"83",
"92",
"75",
"106",
"100",
"99",
"98",
"78",
"93",
"97",
"77",
"73",
"93",
"101",
"154",
"159",
"194",
"260",
"421",
"426",
"582",
"651",
"787",
"968",
"977",
"983",
"1037",
"964",
"993",
"911",
"806",
"649",
"583",
"509",
"393",
"346",
"250",
"243",
"272",
"261",
"283",
"266",
"317",
"298",
"350",
"342",
"385",
"390",
"368",
"310",
"288",
"273",
"243",
"192",
"175",
"157",
"160",
"111",
"91",
"83",
"70",
"48",
"63",
"64",
"62",
"51",
"53",
"64",
"62",
"43",
"66",
"87",
"76",
"66",
"76",
"90",
"89",
"73",
"80",
"77",
"70",
"80",
"64",
"50",
"60",
"52",
"52",
"55",
"55",
"41",
"46",
"46",
"56",
"49",
"44",
"43",
"43",
"46",
"48",
"43",
"53",
"59",
"60",
"56",
"46",
"53",
"44",
"55",
"34",
"40",
"56",
"38",
"46",
"53",
"47",
"49",
"48",
"43",
"49",
"44",
"49",
"43",
"50",
"43",
"39",
"37",
"38",
"39",
"44",
"26",
"44",
"44",
"49",
"48",
"41",
"46",
"54",
"55",
"52",
"57",
"49",
"48",
"44",
"41",
"44",
"56",
"44",
"34",
"51",
"50",
"44",
"46",
"39",
"35",
"51",
"40",
"39",
"40",
"43",
"40",
"38",
"54",
"41",
"52",
"59",
"39",
"51",
"40",
"50",
"48",
"28",
"54",
"54",
"34",
"52",
"47",
"51",
"46",
"46",
"43",
"36",
"41",
"51",
"40",
"59",
"40",
"36",
"53",
"34",
"51",
"53",
"42",
"38",
"47",
"52",
"47",
"41",
"33",
"53",
"52",
"44",
"37",
"41",
"42",
"48",
"43",
"55",
"51",
"53",
"44",
"47",
"51",
"57",
"55",
"48",
"49",
"50",
"43",
"55",
"62",
"69",
"49",
"67",
"89",
"64",
"91",
"81",
"92",
"85",
"90",
"111",
"98",
"153",
"155",
"162",
"145",
"130",
"177",
"183",
"203",
"176",
"184",
"211",
"222",
"245",
"214",
"231",
"222",
"263",
"224",
"273",
"237",
"226",
"209",
"214",
"214",
"196",
"230",
"181",
"178",
"178",
"152",
"155",
"118",
"132",
"114",
"88",
"97",
"108",
"65",
"83",
"75",
"72",
"75",
"78",
"59",
"61",
"79",
"82",
"104",
"83",
"92",
"106",
"114",
"110",
"159",
"198",
"180",
"218",
"190",
"204",
"213",
"267",
"241",
"247",
"242",
"215",
"187",
"180",
"166",
"151",
"116",
"121",
"79",
"88",
"65",
"49",
"63",
"44",
"42",
"34",
"37",
"20605",
"Channel_info_start",
"Channel : Mg",
"Points : 0",
"Range : 0.000000 - 0.000000",
"Step : 0.010000",
"Channel_info_end",
"Channel_info_start",
"Channel : Al",
"Points : 0",
"Range : 0.000000 - 0.000000",
"Step : 0.010000",
"Channel_info_end",
"Channel_info_start",
"Channel : Si",
"Points : 0",
"Range : 0.000000 - 0.000000",
"Step : 0.010000",
"Channel_info_end",
"Channel_info_start",
"Channel : P ",
"Points : 0",
"Range : 0.000000 - 0.000000",
"Step : 0.010000",
"Channel_info_end",
"Channel_info_start",
"Channel : S ",
"Points : 0",
"Range : 0.000000 - 0.000000",
"Step : 0.010000",
"Channel_info_end",
"Channel_info_start",
"Channel : Cl",
"Points : 0",
"Range : 0.000000 - 0.000000",
"Step : 0.010000",
"Channel_info_end",
"Channel_info_start",
"Channel : K ",
"Points : 0",
"Range : 0.000000 - 0.000000",
"Step : 0.010000",
"Channel_info_end",
"Channel_info_start",
"Channel : Ca",
"Points : 0",
"Range : 0.000000 - 0.000000",
"Step : 0.010000",
"Channel_info_end",
"Channel_info_start",
"Channel : Ti",
"Points : 0",
"Range : 0.000000 - 0.000000",
"Step : 0.010000",
"Channel_info_end",
"Channel_info_start",
"Channel : V ",
"Points : 0",
"Range : 0.000000 - 0.000000",
"Step : 0.010000",
"Channel_info_end",
"Channel_info_start",
"Channel : Cr",
"Points : 0",
"Range : 0.000000 - 0.000000",
"Step : 0.010000",
"Channel_info_end",
"Channel_info_start",
"Channel : Mn",
"Points : 0",
"Range : 0.000000 - 0.000000",
"Step : 0.010000",
"Channel_info_end",
"Channel_info_start",
"Channel : Fe",
"Points : 0",
"Range : 0.000000 - 0.000000",
"Step : 0.010000",
"Channel_info_end",
"Channel_info_start",
"Channel : Cu",
"Points : 0",
"Range : 0.000000 - 0.000000",
"Step : 0.010000",
"Channel_info_end",
"Channel_info_start",
"Channel : Zn",
"Points : 0",
"Range : 0.000000 - 0.000000",
"Step : 0.010000",
"Channel_info_end",
"Channel_info_start",
"Channel : Sr",
"Points : 0",
"Range : 0.000000 - 0.000000",
"Step : 0.010000",
"Channel_info_end",
"Channel_info_start",
"Channel : Pb",
"Points : 0",
"Range : 0.000000 - 0.000000",
"Step : 0.010000",
"Channel_info_end",
"",
"Qualitative Result",
"--------------------------------------------------------------------------------",
"Element :  Pb, S , Cl, Ca, Ir, Ru",
"",
"Peak List",
"--------------------------------------------------------------------------------",
"Channel               Line        keV     Net Int.(cps/uA)",
"--------------------------------------------------------------------------------",
"Na                    ----         0.61     0.028",
"                      ----         0.71     0.023",
"                      ----         1.82     0.106",
"                      PbMa         2.37     1.257",
"                      S Ka         2.37     0.612",
"                      ClKa         2.66     0.156",
"                      ----         3.11     0.067",
"                      CaKa         3.70     0.175",
"                      CaKb         4.01     0.019",
"                      PbLL         9.20     0.279",
"                      IrLa         9.20     0.126",
"                      PbLa        10.55     6.982",
"                      IrLb1       10.71     0.069",
"                      PbLn        11.38     0.107",
"                      PbLb4       12.26     0.182",
"                      PbLb1       12.61     4.871",
"                      ----        13.08     0.087",
"                      PbLg1       14.80     0.677",
"                      PbLg2       15.17     0.211",
"                      RuKa        19.23     0.137",
"                      ----        19.97     0.130",
"--------------------------------------------------------------------------------",
"",
"Quantitative Result",
"--------------------------------------------------------------------------------",
"Analyte               Result             Std.Dev. Proc.-Calc. Line Intensity(cps/uA)",
"--------------------------------------------------------------------------------",
"====[No. 1 Layer]====< Layer1               >===============================",
"Layer1                   0.000 ug/cm2    -------- Flux       -------- --------",