File: inputs/edxCalibration/edx_raw/2010-06/Pt 15770.20100626154741.csv
"Sample    : Pt 15770",
"Operator  : luis",
"Comment  : cubatao-g-policarbonato",
"Group     : kerr2007ag180cal_lt",
"Date       : 2010-06-26 15:43:38",
"",
"Mesurement Condition",
"------------------------------------------------------------------------------------",
"Instrument : 700HS2   Atmosphere : Vac.   Collimator : 10(mm)   Spin : No",
"------------------------------------------------------------------------------------",
"Analyte               TG kV   uA      FI Acq.(keV)  Anal.(keV)  Time(sec)     DT(%)",
"------------------------------------------------------------------------------------",
"Na                    Rh 50  210-Auto Al  0 - 20    0.8 - 1.2   Live -  179   15",
"",
"<Profile>",
"Channel_info_start",
"Channel : Na",
"Points : 2048",
"Range : 0.000000 - 20.48",
"Step : 0.010000",
"Channel_info_end",
"0",
"0",
"0",
"0",
"0",
"0",
"0",
"0",
"0",
"0",
"0",
"0",
"0",
"0",
"1",
"50",
"105",
"95",
"77",
"81",
"72",
"59",
"57",
"40",
"32",
"26",
"29",
"28",
"33",
"40",
"30",
"29",
"26",
"28",
"29",
"26",
"35",
"34",
"24",
"36",
"33",
"25",
"32",
"24",
"29",
"30",
"34",
"28",
"33",
"38",
"19",
"28",
"26",
"32",
"24",
"29",
"23",
"27",
"24",
"20",
"25",
"26",
"26",
"20",
"26",
"32",
"29",
"41",
"21",
"28",
"29",
"39",
"44",
"50",
"42",
"40",
"83",
"114",
"185",
"236",
"287",
"274",
"307",
"210",
"199",
"164",
"158",
"163",
"145",
"156",
"203",
"189",
"221",
"236",
"260",
"301",
"359",
"439",
"641",
"1025",
"1635",
"2407",
"3115",
"3596",
"3765",
"3763",
"3387",
"2936",
"2459",
"1665",
"1075",
"649",
"415",
"281",
"306",
"345",
"396",
"351",
"357",
"250",
"204",
"170",
"82",
"48",
"48",
"34",
"42",
"48",
"52",
"48",
"76",
"91",
"91",
"124",
"137",
"161",
"168",
"125",
"91",
"84",
"64",
"53",
"48",
"30",
"30",
"20",
"35",
"19",
"32",
"21",
"23",
"26",
"22",
"19",
"28",
"14",
"20",
"24",
"22",
"25",
"23",
"26",
"23",
"23",
"34",
"22",
"24",
"36",
"23",
"27",
"19",
"25",
"21",
"17",
"20",
"21",
"28",
"42",
"58",
"97",
"145",
"207",
"294",
"382",
"488",
"475",
"433",
"355",
"246",
"138",
"91",
"70",
"56",
"41",
"49",
"32",
"49",
"42",
"60",
"68",
"86",
"71",
"81",
"58",
"58",
"56",
"29",
"37",
"22",
"24",
"34",
"32",
"19",
"22",
"32",
"23",
"37",
"26",
"33",
"29",
"28",
"38",
"42",
"32",
"37",
"36",
"28",
"34",
"42",
"47",
"34",
"41",
"41",
"32",
"30",
"35",
"38",
"36",
"38",
"37",
"33",
"40",
"42",
"30",
"47",
"38",
"42",
"26",
"30",
"42",
"42",
"41",
"37",
"30",
"35",
"24",
"38",
"32",
"39",
"34",
"44",
"35",
"36",
"29",
"58",
"44",
"46",
"60",
"49",
"54",
"49",
"56",
"64",
"60",
"70",
"53",
"52",
"70",
"77",
"84",
"78",
"98",
"84",
"81",
"97",
"78",
"78",
"91",
"85",
"78",
"93",
"81",
"81",
"86",
"68",
"81",
"70",
"49",
"60",
"72",
"60",
"62",
"50",
"61",
"81",
"73",
"83",
"65",
"76",
"76",
"81",
"90",
"75",
"77",
"95",
"108",
"114",
"114",
"117",
"90",
"121",
"160",
"113",
"148",
"137",
"136",
"138",
"125",
"151",
"140",
"143",
"152",
"130",
"140",
"142",
"147",
"134",
"165",
"142",
"118",
"146",
"119",
"118",
"145",
"124",
"135",
"127",
"117",
"131",
"101",
"105",
"107",
"87",
"119",
"94",
"84",
"103",
"107",
"100",
"81",
"98",
"84",
"76",
"79",
"73",
"75",
"71",
"77",
"71",
"93",
"101",
"103",
"114",
"97",
"88",
"96",
"100",
"95",
"90",
"110",
"98",
"110",
"102",
"103",
"114",
"115",
"81",
"88",
"86",
"108",
"95",
"103",
"99",
"103",
"101",
"114",
"128",
"131",
"145",
"143",
"149",
"139",
"198",
"151",
"192",
"188",
"211",
"285",
"336",
"436",
"602",
"615",
"688",
"734",
"749",
"749",
"630",
"579",
"473",
"367",
"271",
"222",
"182",
"151",
"157",
"149",
"161",
"152",
"176",
"185",
"169",
"173",
"221",
"207",
"212",
"170",
"189",
"161",
"159",
"145",
"167",
"146",
"156",
"167",
"144",
"162",
"172",
"146",
"158",
"160",
"157",
"187",
"140",
"162",
"160",
"137",
"173",
"197",
"192",
"299",
"447",
"641",
"1006",
"1550",
"2484",
"3259",
"4647",
"6049",
"7855",
"9396",
"11008",
"11597",
"11894",
"11399",
"10412",
"8892",
"7502",
"5531",
"4167",
"2817",
"2020",
"1157",
"797",
"442",
"303",
"230",
"210",
"164",
"155",
"131",
"147",
"168",
"177",
"184",
"203",
"231",
"273",
"289",
"271",
"279",
"246",
"273",
"214",
"201",
"200",
"170",
"158",
"127",
"131",
"127",
"117",
"108",
"102",
"117",
"111",
"103",
"109",
"113",
"119",
"137",
"113",
"109",
"115",
"97",
"118",
"107",
"108",
"147",
"136",
"113",
"120",
"139",
"169",
"198",
"233",
"280",
"363",
"433",
"557",
"613",
"739",
"826",
"974",
"1056",
"1271",
"1531",
"1925",
"2320",
"3044",
"3670",
"4343",
"4875",
"5733",
"5726",
"6141",
"6029",
"5961",
"5406",
"5118",
"4422",
"4491",
"3866",
"3682",
"3300",
"2972",
"2501",
"2099",
"1703",
"1411",
"1089",
"804",
"661",
"528",
"378",
"368",
"348",
"329",
"354",
"323",
"301",
"311",
"262",
"281",
"259",
"242",
"223",
"183",
"168",
"174",
"157",
"125",
"113",
"143",
"115",
"102",
"105",
"94",
"101",
"85",
"79",
"95",
"95",
"90",
"107",
"85",
"94",
"95",
"96",
"97",
"105",
"100",
"85",
"98",
"93",
"91",
"96",
"94",
"107",
"77",
"102",
"101",
"113",
"106",
"118",
"113",
"117",
"109",
"124",
"122",
"127",
"107",
"111",
"148",
"123",
"140",
"145",
"163",
"223",
"278",
"335",
"447",
"492",
"690",
"833",
"944",
"967",
"1114",
"1123",
"1124",
"1056",
"929",
"797",
"707",
"543",
"467",
"396",
"310",
"319",
"309",
"318",
"330",
"324",
"339",
"400",
"408",
"379",
"408",
"327",
"351",
"319",
"294",
"229",
"235",
"185",
"154",
"136",
"101",
"118",
"91",
"91",
"94",
"65",
"83",
"91",
"88",
"105",
"112",
"89",
"111",
"111",
"118",
"112",
"123",
"108",
"133",
"105",
"102",
"114",
"71",
"87",
"82",
"72",
"82",
"72",
"62",
"74",
"66",
"58",
"58",
"53",
"77",
"69",
"64",
"68",
"70",
"58",
"61",
"62",
"69",
"75",
"73",
"77",
"71",
"69",
"70",
"72",
"62",
"76",
"56",
"70",
"72",
"53",
"89",
"78",
"74",
"61",
"76",
"70",
"68",
"60",
"63",
"62",
"76",
"84",
"60",
"70",
"74",
"65",
"65",
"83",
"66",
"69",
"72",
"81",
"61",
"62",
"57",
"71",
"62",
"57",
"68",
"83",
"65",
"64",
"68",
"45",
"66",
"74",
"71",
"54",
"64",
"59",
"62",
"75",
"70",
"70",
"54",
"53",
"59",
"59",
"65",
"47",
"56",
"54",
"58",
"64",
"63",
"49",
"68",
"61",
"57",
"40",
"52",
"65",
"64",
"48",
"59",
"61",
"56",
"51",
"77",
"51",
"54",
"41",
"62",
"63",
"64",
"41",
"50",
"64",
"63",
"73",
"63",
"51",
"42",
"49",
"50",
"62",
"59",
"42",
"47",
"40",
"58",
"57",
"49",
"62",
"51",
"58",
"40",
"47",
"49",
"53",
"58",
"54",
"59",
"53",
"56",
"52",
"61",
"47",
"58",
"51",
"63",
"49",
"58",
"58",
"62",
"60",
"37",
"54",
"47",
"51",
"47",
"50",
"50",
"41",
"47",
"51",
"56",
"42",
"50",
"59",
"51",
"63",
"54",
"49",
"49",
"53",
"48",
"48",
"49",
"38",
"52",
"56",
"53",
"69",
"51",
"44",
"57",
"63",
"56",
"54",
"53",
"57",
"51",
"49",
"63",
"46",
"47",
"56",
"53",
"61",
"57",
"57",
"68",
"59",
"66",
"50",
"58",
"54",
"64",
"62",
"71",
"63",
"62",
"57",
"57",
"61",
"52",
"53",
"65",
"58",
"69",
"59",
"74",
"60",
"54",
"58",
"52",
"68",
"71",
"62",
"59",
"71",
"66",
"62",
"73",
"77",
"82",
"63",
"84",
"76",
"87",
"93",
"94",
"100",
"93",
"124",
"97",
"115",
"134",
"164",
"161",
"150",
"169",
"204",
"180",
"203",
"247",
"243",
"250",
"268",
"306",
"294",
"292",
"280",
"318",
"301",
"339",
"287",
"358",
"316",
"342",
"306",
"308",
"303",
"318",
"284",
"247",
"236",
"258",
"250",
"203",
"179",
"184",
"179",
"167",
"146",
"155",
"126",
"118",
"109",
"87",
"101",
"91",
"83",
"84",
"84",
"96",
"95",
"82",
"83",
"106",
"136",
"133",
"139",
"146",
"161",
"211",
"212",
"242",
"248",
"231",
"273",
"267",
"294",
"308",
"261",
"266",
"224",
"209",
"151",
"179",
"136",
"133",
"103",
"101",
"93",
"56",
"72",
"73",
"71",
"74",
"56",
"25316",
"Channel_info_start",
"Channel : Mg",
"Points : 0",
"Range : 0.000000 - 0.000000",
"Step : 0.010000",
"Channel_info_end",
"Channel_info_start",
"Channel : Al",
"Points : 0",
"Range : 0.000000 - 0.000000",
"Step : 0.010000",
"Channel_info_end",
"Channel_info_start",
"Channel : Si",
"Points : 0",
"Range : 0.000000 - 0.000000",
"Step : 0.010000",
"Channel_info_end",
"Channel_info_start",
"Channel : P ",
"Points : 0",
"Range : 0.000000 - 0.000000",
"Step : 0.010000",
"Channel_info_end",
"Channel_info_start",
"Channel : S ",
"Points : 0",
"Range : 0.000000 - 0.000000",
"Step : 0.010000",
"Channel_info_end",
"Channel_info_start",
"Channel : Cl",
"Points : 0",
"Range : 0.000000 - 0.000000",
"Step : 0.010000",
"Channel_info_end",
"Channel_info_start",
"Channel : K ",
"Points : 0",
"Range : 0.000000 - 0.000000",
"Step : 0.010000",
"Channel_info_end",
"Channel_info_start",
"Channel : Ca",
"Points : 0",
"Range : 0.000000 - 0.000000",
"Step : 0.010000",
"Channel_info_end",
"Channel_info_start",
"Channel : Ti",
"Points : 0",
"Range : 0.000000 - 0.000000",
"Step : 0.010000",
"Channel_info_end",
"Channel_info_start",
"Channel : V ",
"Points : 0",
"Range : 0.000000 - 0.000000",
"Step : 0.010000",
"Channel_info_end",
"Channel_info_start",
"Channel : Cr",
"Points : 0",
"Range : 0.000000 - 0.000000",
"Step : 0.010000",
"Channel_info_end",
"Channel_info_start",
"Channel : Mn",
"Points : 0",
"Range : 0.000000 - 0.000000",
"Step : 0.010000",
"Channel_info_end",
"Channel_info_start",
"Channel : Fe",
"Points : 0",
"Range : 0.000000 - 0.000000",
"Step : 0.010000",
"Channel_info_end",
"Channel_info_start",
"Channel : Cu",
"Points : 0",
"Range : 0.000000 - 0.000000",
"Step : 0.010000",
"Channel_info_end",
"Channel_info_start",
"Channel : Zn",
"Points : 0",
"Range : 0.000000 - 0.000000",
"Step : 0.010000",
"Channel_info_end",
"Channel_info_start",
"Channel : Sr",
"Points : 0",
"Range : 0.000000 - 0.000000",
"Step : 0.010000",
"Channel_info_end",
"Channel_info_start",
"Channel : Pb",
"Points : 0",
"Range : 0.000000 - 0.000000",
"Step : 0.010000",
"Channel_info_end",
"",
"Qualitative Result",
"--------------------------------------------------------------------------------",
"Element :  Pt, S , Ca, Ru",
"",
"Peak List",
"--------------------------------------------------------------------------------",
"Channel               Line        keV     Net Int.(cps/uA)",
"--------------------------------------------------------------------------------",
"Na                    ----         1.60     0.075",
"                      PtMa         2.08     1.238",
"                      S Ka         2.35     0.096",
"                      ----         2.70     0.043",
"                      CaKa         3.68     0.173",
"                      CaKb         4.03     0.021",
"                      ----         6.74     0.032",
"                      PtLL         8.26     0.288",
"                      PtLa         9.44     5.734",
"                      ----         9.97     0.069",
"                      PtLb1       11.07     2.846",
"                      ----        11.28     1.345",
"                      PtLg1       12.95     0.548",
"                      PtLg3       13.27     0.155",
"                      RuKa        19.21     0.154",
"--------------------------------------------------------------------------------",
"",
"Quantitative Result",
"--------------------------------------------------------------------------------",
"Analyte               Result             Std.Dev. Proc.-Calc. Line Intensity(cps/uA)",
"--------------------------------------------------------------------------------",
"====[No. 1 Layer]====< Layer1               >===============================",
"Layer1                   0.000 ug/cm2    -------- Flux       -------- --------",