File: inputs/edxCalibration/edx_raw/2010-06/Rb 31511.20100611020258.csv
"Sample    : Rb 31511",
"Operator  : Luís",
"Comment  : cubatao-g-policarbonato",
"Group     : kerr2007ag180cal_lt",
"Date       : 2010-06-11 01:56:57",
"",
"Mesurement Condition",
"------------------------------------------------------------------------------------",
"Instrument : 700HS2   Atmosphere : Vac.   Collimator : 10(mm)   Spin : No",
"------------------------------------------------------------------------------------",
"Analyte               TG kV   uA      FI Acq.(keV)  Anal.(keV)  Time(sec)     DT(%)",
"------------------------------------------------------------------------------------",
"Na                    Rh 50  237-Auto Al  0 - 20    0.8 - 1.2   Live -  180   15",
"",
"<Profile>",
"Channel_info_start",
"Channel : Na",
"Points : 2048",
"Range : 0.000000 - 20.48",
"Step : 0.010000",
"Channel_info_end",
"0",
"0",
"0",
"0",
"0",
"0",
"0",
"0",
"0",
"0",
"0",
"0",
"0",
"0",
"0",
"13",
"28",
"31",
"24",
"31",
"30",
"42",
"25",
"30",
"32",
"35",
"31",
"30",
"23",
"30",
"27",
"28",
"34",
"24",
"27",
"42",
"24",
"28",
"29",
"30",
"22",
"26",
"29",
"24",
"30",
"29",
"26",
"22",
"18",
"27",
"26",
"18",
"23",
"24",
"28",
"18",
"22",
"30",
"28",
"25",
"26",
"27",
"28",
"22",
"23",
"24",
"22",
"23",
"22",
"23",
"34",
"55",
"57",
"52",
"67",
"70",
"77",
"51",
"76",
"80",
"109",
"223",
"404",
"510",
"722",
"918",
"967",
"862",
"673",
"522",
"394",
"296",
"201",
"154",
"100",
"90",
"53",
"58",
"77",
"91",
"100",
"95",
"92",
"53",
"54",
"57",
"54",
"51",
"74",
"71",
"71",
"71",
"63",
"51",
"36",
"29",
"19",
"37",
"28",
"30",
"32",
"43",
"55",
"56",
"53",
"54",
"56",
"38",
"39",
"37",
"34",
"26",
"42",
"26",
"35",
"22",
"40",
"22",
"48",
"32",
"26",
"39",
"49",
"27",
"17",
"27",
"30",
"26",
"39",
"26",
"26",
"34",
"38",
"39",
"30",
"22",
"34",
"45",
"39",
"30",
"32",
"42",
"43",
"42",
"51",
"36",
"56",
"55",
"62",
"82",
"120",
"136",
"216",
"252",
"233",
"256",
"247",
"211",
"219",
"248",
"320",
"496",
"714",
"790",
"946",
"960",
"882",
"745",
"596",
"459",
"532",
"846",
"1322",
"2262",
"3447",
"4452",
"5169",
"5430",
"4989",
"4054",
"2916",
"1872",
"1160",
"663",
"500",
"512",
"797",
"1215",
"1865",
"2467",
"3320",
"3549",
"3690",
"3307",
"2890",
"2292",
"1789",
"1275",
"927",
"703",
"581",
"492",
"588",
"678",
"818",
"861",
"824",
"729",
"617",
"488",
"332",
"225",
"160",
"148",
"169",
"199",
"245",
"302",
"361",
"416",
"482",
"404",
"393",
"284",
"201",
"160",
"148",
"119",
"181",
"181",
"250",
"261",
"270",
"253",
"250",
"218",
"178",
"161",
"107",
"87",
"69",
"63",
"84",
"53",
"51",
"50",
"35",
"48",
"39",
"48",
"44",
"45",
"36",
"51",
"52",
"54",
"56",
"41",
"56",
"45",
"56",
"35",
"45",
"34",
"41",
"44",
"48",
"50",
"50",
"53",
"53",
"49",
"54",
"47",
"44",
"51",
"67",
"61",
"78",
"61",
"66",
"68",
"95",
"77",
"79",
"68",
"95",
"89",
"119",
"108",
"107",
"93",
"104",
"106",
"115",
"125",
"116",
"120",
"121",
"133",
"102",
"129",
"134",
"114",
"119",
"149",
"115",
"118",
"117",
"109",
"104",
"120",
"105",
"104",
"131",
"113",
"105",
"117",
"91",
"106",
"127",
"106",
"89",
"102",
"104",
"97",
"86",
"102",
"90",
"79",
"81",
"103",
"83",
"89",
"79",
"103",
"76",
"86",
"96",
"96",
"76",
"62",
"96",
"79",
"92",
"81",
"80",
"110",
"87",
"90",
"88",
"83",
"81",
"86",
"67",
"108",
"80",
"86",
"92",
"79",
"93",
"74",
"80",
"79",
"102",
"93",
"92",
"83",
"87",
"74",
"76",
"76",
"70",
"82",
"101",
"115",
"116",
"106",
"115",
"130",
"114",
"102",
"143",
"109",
"125",
"115",
"109",
"116",
"109",
"99",
"97",
"120",
"115",
"92",
"110",
"117",
"100",
"105",
"102",
"131",
"102",
"115",
"105",
"129",
"120",
"134",
"158",
"146",
"170",
"171",
"173",
"162",
"172",
"155",
"167",
"162",
"131",
"127",
"140",
"114",
"113",
"125",
"102",
"106",
"132",
"101",
"108",
"108",
"110",
"100",
"112",
"107",
"101",
"112",
"96",
"82",
"92",
"109",
"116",
"104",
"105",
"94",
"112",
"102",
"101",
"83",
"113",
"102",
"91",
"102",
"87",
"86",
"96",
"104",
"106",
"95",
"100",
"87",
"102",
"108",
"103",
"97",
"97",
"109",
"105",
"80",
"93",
"74",
"82",
"103",
"86",
"90",
"82",
"89",
"77",
"75",
"100",
"86",
"88",
"76",
"77",
"89",
"89",
"112",
"100",
"96",
"80",
"94",
"93",
"101",
"101",
"99",
"97",
"97",
"105",
"105",
"88",
"102",
"102",
"91",
"93",
"93",
"86",
"92",
"117",
"94",
"118",
"106",
"102",
"96",
"107",
"94",
"110",
"99",
"99",
"93",
"94",
"101",
"82",
"103",
"96",
"110",
"119",
"106",
"120",
"114",
"95",
"93",
"110",
"88",
"102",
"93",
"102",
"100",
"92",
"107",
"105",
"80",
"82",
"105",
"84",
"92",
"96",
"83",
"87",
"101",
"99",
"84",
"77",
"95",
"91",
"99",
"84",
"89",
"109",
"92",
"101",
"94",
"96",
"83",
"110",
"92",
"93",
"92",
"94",
"70",
"78",
"91",
"77",
"83",
"92",
"71",
"73",
"103",
"90",
"84",
"84",
"94",
"100",
"100",
"79",
"91",
"91",
"82",
"88",
"84",
"115",
"83",
"79",
"61",
"77",
"78",
"82",
"76",
"75",
"101",
"88",
"91",
"107",
"86",
"78",
"89",
"88",
"89",
"106",
"97",
"94",
"79",
"102",
"96",
"87",
"100",
"77",
"87",
"93",
"78",
"92",
"94",
"91",
"91",
"83",
"83",
"94",
"95",
"107",
"112",
"94",
"97",
"120",
"116",
"129",
"143",
"208",
"272",
"366",
"535",
"799",
"1212",
"1719",
"2409",
"3535",
"4468",
"5962",
"6982",
"8771",
"9613",
"10729",
"10996",
"11711",
"10933",
"10494",
"9185",
"8456",
"6625",
"5642",
"4181",
"3130",
"2186",
"1549",
"1053",
"676",
"430",
"318",
"204",
"135",
"126",
"113",
"101",
"114",
"97",
"100",
"91",
"84",
"70",
"81",
"80",
"82",
"86",
"88",
"81",
"94",
"82",
"91",
"65",
"107",
"88",
"65",
"78",
"78",
"82",
"78",
"77",
"71",
"93",
"81",
"66",
"102",
"105",
"88",
"82",
"103",
"79",
"92",
"79",
"95",
"77",
"104",
"91",
"99",
"89",
"83",
"106",
"113",
"135",
"157",
"218",
"309",
"351",
"503",
"625",
"813",
"975",
"1244",
"1341",
"1567",
"1622",
"1791",
"1810",
"1799",
"1603",
"1605",
"1370",
"1304",
"1052",
"889",
"702",
"624",
"503",
"457",
"391",
"317",
"310",
"268",
"197",
"219",
"178",
"125",
"97",
"114",
"84",
"76",
"64",
"69",
"62",
"79",
"63",
"69",
"64",
"49",
"42",
"61",
"73",
"68",
"61",
"67",
"71",
"69",
"65",
"53",
"60",
"63",
"49",
"55",
"60",
"41",
"56",
"63",
"61",
"50",
"53",
"63",
"44",
"56",
"66",
"56",
"64",
"60",
"55",
"52",
"47",
"47",
"57",
"50",
"51",
"53",
"58",
"66",
"47",
"47",
"55",
"66",
"63",
"50",
"53",
"64",
"52",
"58",
"44",
"65",
"65",
"55",
"55",
"52",
"63",
"52",
"55",
"39",
"57",
"62",
"65",
"65",
"52",
"66",
"60",
"51",
"40",
"51",
"57",
"63",
"48",
"61",
"43",
"74",
"51",
"51",
"69",
"67",
"64",
"58",
"62",
"52",
"53",
"58",
"61",
"60",
"64",
"55",
"52",
"67",
"52",
"57",
"65",
"70",
"44",
"57",
"65",
"55",
"58",
"64",
"68",
"67",
"70",
"55",
"51",
"51",
"82",
"55",
"38",
"49",
"62",
"45",
"67",
"51",
"56",
"68",
"64",
"41",
"40",
"50",
"63",
"57",
"60",
"54",
"74",
"53",
"58",
"63",
"62",
"69",
"71",
"75",
"54",
"62",
"55",
"64",
"71",
"63",
"68",
"61",
"54",
"78",
"62",
"69",
"62",
"67",
"81",
"86",
"84",
"76",
"81",
"81",
"86",
"87",
"95",
"104",
"91",
"115",
"120",
"109",
"135",
"136",
"173",
"194",
"193",
"197",
"194",
"196",
"224",
"240",
"243",
"281",
"266",
"336",
"317",
"315",
"323",
"393",
"324",
"332",
"345",
"400",
"309",
"323",
"311",
"324",
"296",
"312",
"276",
"281",
"205",
"263",
"230",
"219",
"194",
"208",
"165",
"166",
"155",
"138",
"126",
"112",
"110",
"100",
"94",
"88",
"76",
"103",
"80",
"94",
"90",
"88",
"93",
"102",
"120",
"130",
"138",
"138",
"160",
"170",
"193",
"175",
"174",
"220",
"209",
"214",
"210",
"204",
"173",
"206",
"188",
"164",
"134",
"138",
"97",
"110",
"70",
"66",
"68",
"69",
"41",
"52",
"55",
"43",
"43",
"44651",
"Channel_info_start",
"Channel : Mg",
"Points : 0",
"Range : 0.000000 - 0.000000",
"Step : 0.010000",
"Channel_info_end",
"Channel_info_start",
"Channel : Al",
"Points : 0",
"Range : 0.000000 - 0.000000",
"Step : 0.010000",
"Channel_info_end",
"Channel_info_start",
"Channel : Si",
"Points : 0",
"Range : 0.000000 - 0.000000",
"Step : 0.010000",
"Channel_info_end",
"Channel_info_start",
"Channel : P ",
"Points : 0",
"Range : 0.000000 - 0.000000",
"Step : 0.010000",
"Channel_info_end",
"Channel_info_start",
"Channel : S ",
"Points : 0",
"Range : 0.000000 - 0.000000",
"Step : 0.010000",
"Channel_info_end",
"Channel_info_start",
"Channel : Cl",
"Points : 0",
"Range : 0.000000 - 0.000000",
"Step : 0.010000",
"Channel_info_end",
"Channel_info_start",
"Channel : K ",
"Points : 0",
"Range : 0.000000 - 0.000000",
"Step : 0.010000",
"Channel_info_end",
"Channel_info_start",
"Channel : Ca",
"Points : 0",
"Range : 0.000000 - 0.000000",
"Step : 0.010000",
"Channel_info_end",
"Channel_info_start",
"Channel : Ti",
"Points : 0",
"Range : 0.000000 - 0.000000",
"Step : 0.010000",
"Channel_info_end",
"Channel_info_start",
"Channel : V ",
"Points : 0",
"Range : 0.000000 - 0.000000",
"Step : 0.010000",
"Channel_info_end",
"Channel_info_start",
"Channel : Cr",
"Points : 0",
"Range : 0.000000 - 0.000000",
"Step : 0.010000",
"Channel_info_end",
"Channel_info_start",
"Channel : Mn",
"Points : 0",
"Range : 0.000000 - 0.000000",
"Step : 0.010000",
"Channel_info_end",
"Channel_info_start",
"Channel : Fe",
"Points : 0",
"Range : 0.000000 - 0.000000",
"Step : 0.010000",
"Channel_info_end",
"Channel_info_start",
"Channel : Cu",
"Points : 0",
"Range : 0.000000 - 0.000000",
"Step : 0.010000",
"Channel_info_end",
"Channel_info_start",
"Channel : Zn",
"Points : 0",
"Range : 0.000000 - 0.000000",
"Step : 0.010000",
"Channel_info_end",
"Channel_info_start",
"Channel : Sr",
"Points : 0",
"Range : 0.000000 - 0.000000",
"Step : 0.010000",
"Channel_info_end",
"Channel_info_start",
"Channel : Pb",
"Points : 0",
"Range : 0.000000 - 0.000000",
"Step : 0.010000",
"Channel_info_end",
"",
"Qualitative Result",
"--------------------------------------------------------------------------------",
"Element :  Al, Rb, P , I , Ca",
"",
"Peak List",
"--------------------------------------------------------------------------------",
"Channel               Line        keV     Net Int.(cps/uA)",
"--------------------------------------------------------------------------------",
"Na                    AlKa         1.48     0.012",
"                      RbLa         1.72     0.251",
"                      P Ka         1.99     0.018",
"                      I LL         3.48     0.038",
"                      CaKa         3.68     0.254",
"                      I La         3.94     1.771",
"                      CaKb         4.01     0.036",
"                      I Lb1        4.23     1.136",
"                      I Lb2        4.52     0.225",
"                      I Lg1        4.80     0.123",
"                      I Lg2        5.04     0.069",
"                      RbKa        13.36     5.467",
"                      RbKb        14.93     0.855",
"                      ----        19.12     0.149",
"                      ----        19.44     0.063",
"                      ----        19.97     0.051",
"--------------------------------------------------------------------------------",
"",
"Quantitative Result",
"--------------------------------------------------------------------------------",
"Analyte               Result             Std.Dev. Proc.-Calc. Line Intensity(cps/uA)",
"--------------------------------------------------------------------------------",
"====[No. 1 Layer]====< Layer1               >===============================",
"Layer1                   0.000 ug/cm2    -------- Flux       -------- --------",