File: inputs/edxCalibration/edx_raw/2010-06/Rh 15765.20100525235352.csv
"Sample    : Rh 15765",
"Operator  : luisf",
"Comment  : cubatao-g-policarbonato",
"Group     : kerr2007ag180cal_lt",
"Date       : 2010-05-25 23:49:38",
"",
"Mesurement Condition",
"------------------------------------------------------------------------------------",
"Instrument : 700HS2   Atmosphere : Vac.   Collimator : 10(mm)   Spin : No",
"------------------------------------------------------------------------------------",
"Analyte               TG kV   uA      FI Acq.(keV)  Anal.(keV)  Time(sec)     DT(%)",
"------------------------------------------------------------------------------------",
"Na                    Rh 50  393-Auto Al  0 - 20    0.8 - 1.2   Live -  179   15",
"",
"<Profile>",
"Channel_info_start",
"Channel : Na",
"Points : 2048",
"Range : 0.000000 - 20.48",
"Step : 0.010000",
"Channel_info_end",
"0",
"0",
"0",
"0",
"0",
"0",
"0",
"0",
"0",
"0",
"0",
"0",
"0",
"0",
"1",
"13",
"43",
"46",
"42",
"51",
"41",
"40",
"52",
"47",
"42",
"51",
"44",
"51",
"49",
"42",
"44",
"43",
"61",
"49",
"44",
"42",
"35",
"51",
"49",
"52",
"63",
"69",
"48",
"47",
"103",
"115",
"151",
"132",
"180",
"151",
"153",
"118",
"106",
"111",
"87",
"89",
"90",
"105",
"110",
"78",
"84",
"85",
"52",
"93",
"60",
"74",
"72",
"67",
"53",
"67",
"69",
"48",
"84",
"63",
"75",
"54",
"65",
"68",
"66",
"60",
"54",
"77",
"59",
"66",
"60",
"56",
"82",
"52",
"64",
"59",
"53",
"66",
"52",
"55",
"58",
"50",
"72",
"93",
"80",
"132",
"145",
"135",
"124",
"108",
"84",
"104",
"107",
"95",
"105",
"115",
"106",
"124",
"127",
"157",
"182",
"210",
"276",
"354",
"426",
"455",
"423",
"382",
"352",
"329",
"324",
"331",
"363",
"379",
"488",
"710",
"1283",
"2307",
"3836",
"5462",
"7072",
"7429",
"6977",
"6089",
"4825",
"3919",
"3726",
"3681",
"3858",
"3516",
"3112",
"2568",
"2047",
"1533",
"1216",
"1017",
"841",
"752",
"636",
"508",
"438",
"367",
"343",
"281",
"292",
"256",
"157",
"129",
"104",
"110",
"93",
"102",
"161",
"182",
"195",
"204",
"190",
"156",
"108",
"99",
"58",
"68",
"69",
"85",
"124",
"201",
"308",
"426",
"598",
"753",
"908",
"918",
"775",
"614",
"399",
"286",
"157",
"127",
"79",
"91",
"88",
"76",
"80",
"105",
"139",
"151",
"148",
"137",
"164",
"132",
"94",
"85",
"76",
"50",
"54",
"59",
"49",
"58",
"56",
"52",
"50",
"44",
"44",
"62",
"66",
"67",
"65",
"79",
"80",
"62",
"67",
"65",
"69",
"82",
"78",
"85",
"84",
"77",
"74",
"74",
"78",
"68",
"81",
"68",
"68",
"53",
"80",
"69",
"61",
"64",
"61",
"60",
"59",
"62",
"54",
"63",
"61",
"38",
"68",
"69",
"56",
"56",
"55",
"60",
"66",
"66",
"71",
"58",
"66",
"61",
"66",
"72",
"73",
"79",
"76",
"79",
"75",
"61",
"87",
"94",
"97",
"81",
"84",
"89",
"102",
"101",
"117",
"100",
"113",
"116",
"127",
"117",
"141",
"138",
"165",
"133",
"140",
"143",
"110",
"144",
"141",
"127",
"127",
"120",
"135",
"124",
"119",
"118",
"128",
"130",
"114",
"116",
"107",
"137",
"114",
"139",
"111",
"113",
"102",
"124",
"137",
"144",
"135",
"129",
"140",
"128",
"156",
"158",
"177",
"162",
"157",
"148",
"183",
"159",
"194",
"190",
"187",
"196",
"177",
"216",
"258",
"225",
"232",
"240",
"208",
"232",
"259",
"228",
"217",
"227",
"230",
"242",
"256",
"239",
"225",
"231",
"230",
"187",
"207",
"204",
"186",
"197",
"175",
"154",
"178",
"165",
"168",
"138",
"159",
"150",
"152",
"166",
"161",
"141",
"161",
"146",
"143",
"157",
"155",
"139",
"137",
"138",
"135",
"140",
"144",
"146",
"152",
"135",
"155",
"138",
"176",
"143",
"143",
"116",
"139",
"148",
"130",
"166",
"161",
"138",
"168",
"153",
"149",
"166",
"167",
"180",
"175",
"199",
"201",
"202",
"175",
"199",
"177",
"182",
"170",
"155",
"163",
"193",
"142",
"159",
"144",
"156",
"155",
"165",
"150",
"167",
"163",
"158",
"182",
"178",
"166",
"169",
"183",
"205",
"221",
"232",
"270",
"254",
"245",
"230",
"250",
"232",
"218",
"187",
"225",
"192",
"205",
"181",
"213",
"239",
"204",
"210",
"217",
"219",
"252",
"203",
"208",
"216",
"212",
"202",
"204",
"193",
"175",
"201",
"215",
"212",
"179",
"195",
"170",
"180",
"222",
"173",
"193",
"170",
"191",
"158",
"206",
"183",
"192",
"179",
"173",
"191",
"178",
"194",
"167",
"177",
"167",
"156",
"161",
"158",
"148",
"170",
"167",
"153",
"171",
"170",
"176",
"155",
"162",
"164",
"152",
"175",
"201",
"158",
"168",
"174",
"187",
"180",
"174",
"197",
"182",
"150",
"188",
"152",
"186",
"156",
"153",
"170",
"182",
"141",
"167",
"152",
"154",
"143",
"158",
"159",
"164",
"165",
"173",
"142",
"148",
"187",
"168",
"151",
"162",
"145",
"154",
"161",
"189",
"169",
"179",
"179",
"178",
"161",
"176",
"145",
"184",
"152",
"148",
"180",
"149",
"156",
"159",
"158",
"180",
"159",
"145",
"182",
"143",
"154",
"154",
"174",
"152",
"152",
"152",
"171",
"165",
"136",
"163",
"155",
"142",
"155",
"148",
"136",
"166",
"131",
"129",
"150",
"138",
"142",
"146",
"145",
"126",
"144",
"153",
"148",
"171",
"151",
"142",
"136",
"155",
"152",
"176",
"166",
"177",
"162",
"179",
"144",
"180",
"173",
"191",
"149",
"157",
"139",
"176",
"154",
"153",
"154",
"169",
"133",
"167",
"163",
"152",
"142",
"184",
"165",
"151",
"143",
"131",
"154",
"161",
"141",
"166",
"163",
"164",
"127",
"142",
"138",
"175",
"139",
"176",
"151",
"155",
"150",
"152",
"164",
"146",
"143",
"129",
"120",
"131",
"150",
"136",
"137",
"153",
"137",
"138",
"141",
"150",
"138",
"143",
"115",
"124",
"143",
"118",
"137",
"144",
"103",
"153",
"149",
"137",
"138",
"124",
"127",
"139",
"146",
"131",
"122",
"138",
"133",
"132",
"136",
"138",
"122",
"149",
"99",
"124",
"140",
"140",
"126",
"142",
"146",
"135",
"107",
"162",
"119",
"107",
"136",
"156",
"117",
"112",
"123",
"131",
"106",
"137",
"137",
"126",
"120",
"124",
"126",
"111",
"111",
"133",
"125",
"111",
"117",
"113",
"120",
"132",
"142",
"146",
"108",
"130",
"143",
"150",
"127",
"129",
"120",
"133",
"99",
"108",
"124",
"101",
"122",
"127",
"122",
"148",
"93",
"106",
"107",
"107",
"103",
"130",
"119",
"124",
"127",
"125",
"111",
"133",
"124",
"127",
"128",
"122",
"113",
"117",
"107",
"110",
"106",
"107",
"106",
"119",
"112",
"130",
"103",
"138",
"130",
"131",
"127",
"135",
"110",
"101",
"125",
"119",
"129",
"114",
"120",
"104",
"100",
"115",
"115",
"115",
"100",
"120",
"101",
"140",
"110",
"104",
"97",
"114",
"108",
"94",
"106",
"131",
"132",
"105",
"95",
"88",
"106",
"128",
"115",
"114",
"107",
"113",
"110",
"125",
"119",
"110",
"94",
"117",
"113",
"116",
"99",
"111",
"110",
"119",
"98",
"104",
"87",
"105",
"87",
"105",
"98",
"78",
"106",
"97",
"93",
"103",
"103",
"103",
"110",
"110",
"81",
"107",
"116",
"88",
"99",
"98",
"103",
"98",
"95",
"114",
"94",
"106",
"79",
"102",
"100",
"118",
"74",
"103",
"81",
"92",
"94",
"99",
"94",
"99",
"117",
"108",
"100",
"103",
"103",
"127",
"92",
"94",
"99",
"113",
"86",
"113",
"90",
"103",
"79",
"105",
"107",
"100",
"103",
"95",
"88",
"125",
"97",
"91",
"88",
"112",
"97",
"115",
"88",
"103",
"106",
"92",
"92",
"97",
"92",
"112",
"111",
"98",
"85",
"103",
"108",
"101",
"82",
"91",
"87",
"118",
"104",
"94",
"84",
"105",
"100",
"92",
"111",
"108",
"107",
"98",
"94",
"125",
"99",
"91",
"97",
"108",
"104",
"108",
"103",
"99",
"102",
"118",
"115",
"116",
"110",
"107",
"114",
"122",
"100",
"108",
"108",
"99",
"125",
"111",
"130",
"144",
"112",
"114",
"115",
"126",
"122",
"146",
"116",
"148",
"133",
"139",
"148",
"169",
"168",
"171",
"190",
"216",
"208",
"227",
"220",
"296",
"307",
"291",
"310",
"356",
"346",
"378",
"400",
"416",
"444",
"502",
"509",
"551",
"533",
"574",
"580",
"605",
"569",
"552",
"616",
"677",
"642",
"601",
"634",
"561",
"571",
"512",
"516",
"509",
"484",
"491",
"417",
"442",
"355",
"373",
"333",
"341",
"320",
"295",
"250",
"245",
"250",
"255",
"235",
"238",
"241",
"329",
"352",
"476",
"631",
"809",
"947",
"1446",
"1569",
"2148",
"2444",
"3067",
"3569",
"4307",
"4551",
"5349",
"5572",
"6262",
"6337",
"6830",
"6512",
"6390",
"5942",
"6120",
"4978",
"4662",
"3917",
"3637",
"2747",
"2315",
"1711",
"1394",
"950",
"738",
"518",
"405",
"276",
"192",
"139",
"84207",
"Channel_info_start",
"Channel : Mg",
"Points : 0",
"Range : 0.000000 - 0.000000",
"Step : 0.010000",
"Channel_info_end",
"Channel_info_start",
"Channel : Al",
"Points : 0",
"Range : 0.000000 - 0.000000",
"Step : 0.010000",
"Channel_info_end",
"Channel_info_start",
"Channel : Si",
"Points : 0",
"Range : 0.000000 - 0.000000",
"Step : 0.010000",
"Channel_info_end",
"Channel_info_start",
"Channel : P ",
"Points : 0",
"Range : 0.000000 - 0.000000",
"Step : 0.010000",
"Channel_info_end",
"Channel_info_start",
"Channel : S ",
"Points : 0",
"Range : 0.000000 - 0.000000",
"Step : 0.010000",
"Channel_info_end",
"Channel_info_start",
"Channel : Cl",
"Points : 0",
"Range : 0.000000 - 0.000000",
"Step : 0.010000",
"Channel_info_end",
"Channel_info_start",
"Channel : K ",
"Points : 0",
"Range : 0.000000 - 0.000000",
"Step : 0.010000",
"Channel_info_end",
"Channel_info_start",
"Channel : Ca",
"Points : 0",
"Range : 0.000000 - 0.000000",
"Step : 0.010000",
"Channel_info_end",
"Channel_info_start",
"Channel : Ti",
"Points : 0",
"Range : 0.000000 - 0.000000",
"Step : 0.010000",
"Channel_info_end",
"Channel_info_start",
"Channel : V ",
"Points : 0",
"Range : 0.000000 - 0.000000",
"Step : 0.010000",
"Channel_info_end",
"Channel_info_start",
"Channel : Cr",
"Points : 0",
"Range : 0.000000 - 0.000000",
"Step : 0.010000",
"Channel_info_end",
"Channel_info_start",
"Channel : Mn",
"Points : 0",
"Range : 0.000000 - 0.000000",
"Step : 0.010000",
"Channel_info_end",
"Channel_info_start",
"Channel : Fe",
"Points : 0",
"Range : 0.000000 - 0.000000",
"Step : 0.010000",
"Channel_info_end",
"Channel_info_start",
"Channel : Cu",
"Points : 0",
"Range : 0.000000 - 0.000000",
"Step : 0.010000",
"Channel_info_end",
"Channel_info_start",
"Channel : Zn",
"Points : 0",
"Range : 0.000000 - 0.000000",
"Step : 0.010000",
"Channel_info_end",
"Channel_info_start",
"Channel : Sr",
"Points : 0",
"Range : 0.000000 - 0.000000",
"Step : 0.010000",
"Channel_info_end",
"Channel_info_start",
"Channel : Pb",
"Points : 0",
"Range : 0.000000 - 0.000000",
"Step : 0.010000",
"Channel_info_end",
"",
"Qualitative Result",
"--------------------------------------------------------------------------------",
"Element :  Zn, P , Cd, K , Ca, Ru",
"",
"Peak List",
"--------------------------------------------------------------------------------",
"Channel               Line        keV     Net Int.(cps/uA)",
"--------------------------------------------------------------------------------",
"Na                    ZnLa         0.96     0.020",
"                      P Ka         2.00     0.012",
"                      ----         2.38     0.054",
"                      CdLL         2.70     1.365",
"                      ----         2.87     0.599",
"                      CdLa         3.17     0.025",
"                      CdLb1        3.36     0.012",
"                      K Ka         3.36     0.011",
"                      K Kb         3.59     0.002",
"                      CaKa         3.69     0.170",
"                      CaKb         4.00     0.020",
"                      ----         6.80     0.026",
"                      ----         8.60     0.023",
"                      RuKa        19.21     0.132",
"--------------------------------------------------------------------------------",
"",
"Quantitative Result",
"--------------------------------------------------------------------------------",
"Analyte               Result             Std.Dev. Proc.-Calc. Line Intensity(cps/uA)",
"--------------------------------------------------------------------------------",
"====[No. 1 Layer]====< Layer1               >===============================",
"Layer1                   0.000 ug/cm2    -------- Flux       -------- --------",