File: inputs/edxCalibration/edx_raw/2010-06/Sb 15767.20100626141658.csv
"Sample    : Sb 15767",
"Operator  : thiago",
"Comment  : cubatao-g-policarbonato",
"Group     : kerr2007ag180cal_lt",
"Date       : 2010-06-26 14:12:44",
"",
"Mesurement Condition",
"------------------------------------------------------------------------------------",
"Instrument : 700HS2   Atmosphere : Vac.   Collimator : 10(mm)   Spin : No",
"------------------------------------------------------------------------------------",
"Analyte               TG kV   uA      FI Acq.(keV)  Anal.(keV)  Time(sec)     DT(%)",
"------------------------------------------------------------------------------------",
"Na                    Rh 50  393-Auto Al  0 - 20    0.8 - 1.2   Live -  180   15",
"",
"<Profile>",
"Channel_info_start",
"Channel : Na",
"Points : 2048",
"Range : 0.000000 - 20.48",
"Step : 0.010000",
"Channel_info_end",
"0",
"0",
"0",
"0",
"0",
"0",
"0",
"0",
"0",
"0",
"0",
"0",
"0",
"0",
"1",
"17",
"44",
"43",
"54",
"50",
"61",
"50",
"48",
"43",
"47",
"52",
"46",
"43",
"47",
"43",
"56",
"44",
"44",
"52",
"43",
"42",
"29",
"44",
"47",
"57",
"46",
"42",
"43",
"39",
"50",
"34",
"50",
"34",
"45",
"46",
"39",
"47",
"33",
"33",
"45",
"45",
"36",
"54",
"42",
"44",
"45",
"47",
"48",
"40",
"55",
"42",
"37",
"35",
"62",
"54",
"55",
"55",
"60",
"66",
"58",
"60",
"55",
"58",
"45",
"45",
"61",
"52",
"44",
"58",
"74",
"75",
"60",
"76",
"84",
"119",
"135",
"162",
"197",
"192",
"198",
"163",
"120",
"115",
"119",
"150",
"146",
"156",
"166",
"158",
"141",
"149",
"156",
"126",
"111",
"102",
"87",
"88",
"71",
"80",
"51",
"70",
"69",
"67",
"75",
"58",
"68",
"66",
"62",
"63",
"69",
"48",
"64",
"52",
"55",
"52",
"57",
"57",
"74",
"54",
"72",
"73",
"59",
"76",
"69",
"60",
"69",
"61",
"91",
"88",
"83",
"81",
"78",
"86",
"86",
"93",
"107",
"100",
"141",
"140",
"173",
"215",
"286",
"418",
"535",
"595",
"690",
"576",
"507",
"387",
"279",
"239",
"232",
"289",
"293",
"345",
"380",
"437",
"571",
"794",
"1198",
"2079",
"3909",
"6280",
"9479",
"11934",
"13813",
"13660",
"12387",
"9577",
"6872",
"4592",
"3033",
"2675",
"3012",
"3869",
"5666",
"7151",
"8607",
"8746",
"8500",
"7574",
"6348",
"4907",
"3851",
"2751",
"2043",
"1669",
"1677",
"1608",
"1893",
"1897",
"1883",
"1637",
"1357",
"959",
"682",
"485",
"407",
"442",
"566",
"714",
"863",
"980",
"999",
"893",
"771",
"594",
"454",
"325",
"281",
"324",
"413",
"519",
"652",
"683",
"727",
"680",
"608",
"407",
"364",
"249",
"167",
"158",
"127",
"93",
"73",
"75",
"49",
"71",
"63",
"49",
"57",
"75",
"51",
"68",
"64",
"63",
"75",
"64",
"70",
"67",
"66",
"75",
"60",
"87",
"84",
"98",
"76",
"106",
"97",
"80",
"91",
"92",
"94",
"93",
"102",
"70",
"96",
"72",
"93",
"73",
"73",
"75",
"81",
"73",
"88",
"88",
"103",
"88",
"93",
"111",
"96",
"114",
"98",
"123",
"119",
"115",
"138",
"151",
"134",
"135",
"126",
"167",
"156",
"180",
"181",
"143",
"144",
"181",
"153",
"149",
"165",
"192",
"162",
"186",
"140",
"153",
"153",
"159",
"159",
"167",
"156",
"173",
"166",
"161",
"129",
"166",
"154",
"144",
"132",
"133",
"123",
"123",
"138",
"122",
"122",
"144",
"134",
"131",
"127",
"138",
"120",
"132",
"121",
"156",
"150",
"177",
"146",
"143",
"163",
"150",
"157",
"123",
"157",
"149",
"177",
"158",
"159",
"147",
"169",
"161",
"157",
"170",
"163",
"178",
"179",
"167",
"168",
"189",
"165",
"176",
"168",
"180",
"210",
"181",
"162",
"174",
"181",
"182",
"193",
"182",
"180",
"193",
"191",
"192",
"215",
"204",
"209",
"217",
"224",
"242",
"220",
"198",
"221",
"214",
"221",
"222",
"201",
"212",
"246",
"229",
"226",
"215",
"240",
"225",
"221",
"234",
"236",
"221",
"214",
"197",
"194",
"169",
"155",
"157",
"169",
"176",
"168",
"168",
"164",
"146",
"188",
"168",
"154",
"180",
"173",
"173",
"163",
"162",
"167",
"187",
"203",
"189",
"215",
"249",
"214",
"217",
"217",
"218",
"212",
"196",
"185",
"187",
"188",
"170",
"165",
"156",
"182",
"190",
"178",
"164",
"176",
"146",
"185",
"179",
"188",
"164",
"208",
"180",
"205",
"192",
"191",
"191",
"180",
"177",
"210",
"210",
"191",
"170",
"213",
"200",
"183",
"198",
"199",
"178",
"192",
"182",
"169",
"178",
"201",
"177",
"170",
"179",
"159",
"154",
"194",
"180",
"156",
"168",
"143",
"158",
"149",
"119",
"150",
"145",
"152",
"149",
"179",
"145",
"168",
"145",
"181",
"162",
"157",
"149",
"140",
"157",
"144",
"140",
"177",
"145",
"171",
"169",
"186",
"175",
"146",
"170",
"161",
"153",
"173",
"167",
"166",
"182",
"146",
"154",
"151",
"168",
"156",
"176",
"152",
"165",
"179",
"164",
"167",
"193",
"140",
"173",
"179",
"153",
"211",
"173",
"173",
"177",
"174",
"173",
"175",
"156",
"180",
"156",
"179",
"192",
"204",
"182",
"150",
"157",
"188",
"157",
"178",
"158",
"180",
"176",
"158",
"158",
"146",
"156",
"166",
"158",
"140",
"150",
"164",
"157",
"114",
"143",
"179",
"134",
"156",
"131",
"134",
"149",
"170",
"151",
"161",
"171",
"137",
"134",
"171",
"135",
"157",
"158",
"156",
"153",
"137",
"139",
"152",
"144",
"162",
"181",
"182",
"150",
"154",
"129",
"139",
"129",
"146",
"150",
"164",
"126",
"147",
"130",
"165",
"129",
"143",
"141",
"142",
"119",
"165",
"159",
"118",
"144",
"118",
"145",
"128",
"135",
"147",
"155",
"115",
"108",
"147",
"135",
"135",
"130",
"144",
"133",
"132",
"138",
"131",
"120",
"125",
"144",
"122",
"134",
"131",
"132",
"152",
"165",
"143",
"128",
"147",
"137",
"151",
"121",
"123",
"132",
"122",
"123",
"141",
"129",
"150",
"125",
"134",
"140",
"151",
"130",
"132",
"130",
"127",
"146",
"142",
"144",
"150",
"138",
"133",
"138",
"143",
"137",
"128",
"120",
"153",
"143",
"118",
"116",
"123",
"100",
"154",
"145",
"140",
"108",
"140",
"129",
"140",
"106",
"132",
"118",
"145",
"110",
"122",
"109",
"139",
"140",
"131",
"119",
"123",
"125",
"132",
"117",
"133",
"127",
"122",
"120",
"144",
"105",
"100",
"109",
"126",
"117",
"134",
"130",
"133",
"122",
"132",
"107",
"116",
"119",
"131",
"126",
"152",
"123",
"119",
"126",
"113",
"119",
"135",
"119",
"118",
"132",
"116",
"114",
"126",
"126",
"126",
"122",
"120",
"116",
"115",
"110",
"116",
"93",
"135",
"109",
"121",
"92",
"120",
"111",
"108",
"118",
"98",
"99",
"111",
"114",
"100",
"121",
"111",
"115",
"129",
"126",
"105",
"92",
"107",
"99",
"109",
"100",
"103",
"104",
"104",
"108",
"116",
"104",
"110",
"108",
"119",
"109",
"99",
"104",
"82",
"107",
"117",
"114",
"107",
"125",
"98",
"107",
"111",
"102",
"117",
"115",
"111",
"105",
"102",
"109",
"109",
"96",
"105",
"92",
"104",
"110",
"106",
"103",
"92",
"94",
"117",
"95",
"110",
"114",
"96",
"113",
"104",
"91",
"88",
"105",
"118",
"83",
"84",
"100",
"100",
"103",
"99",
"95",
"96",
"114",
"113",
"81",
"96",
"102",
"113",
"90",
"108",
"90",
"103",
"100",
"83",
"91",
"105",
"103",
"96",
"98",
"111",
"88",
"100",
"105",
"87",
"88",
"94",
"95",
"97",
"84",
"105",
"102",
"98",
"106",
"98",
"80",
"119",
"104",
"106",
"80",
"86",
"88",
"100",
"91",
"96",
"103",
"79",
"103",
"81",
"95",
"86",
"93",
"95",
"94",
"111",
"73",
"100",
"99",
"100",
"95",
"104",
"82",
"99",
"93",
"115",
"96",
"74",
"90",
"91",
"84",
"104",
"99",
"115",
"90",
"102",
"95",
"104",
"105",
"86",
"93",
"126",
"81",
"107",
"95",
"119",
"98",
"104",
"99",
"110",
"119",
"98",
"102",
"118",
"93",
"105",
"133",
"116",
"108",
"110",
"98",
"114",
"123",
"119",
"115",
"133",
"128",
"109",
"120",
"141",
"153",
"169",
"155",
"140",
"153",
"162",
"174",
"174",
"180",
"201",
"212",
"249",
"230",
"247",
"247",
"299",
"318",
"338",
"388",
"412",
"429",
"448",
"448",
"494",
"455",
"578",
"523",
"621",
"528",
"634",
"567",
"665",
"542",
"578",
"566",
"599",
"544",
"554",
"483",
"533",
"409",
"429",
"418",
"425",
"359",
"343",
"329",
"281",
"271",
"236",
"245",
"239",
"216",
"221",
"197",
"183",
"163",
"151",
"174",
"146",
"140",
"169",
"138",
"182",
"151",
"187",
"203",
"226",
"293",
"288",
"325",
"346",
"329",
"398",
"386",
"424",
"423",
"376",
"327",
"403",
"320",
"287",
"258",
"241",
"214",
"215",
"143",
"142",
"123",
"104",
"91",
"102",
"71",
"91",
"80",
"128320",
"Channel_info_start",
"Channel : Mg",
"Points : 0",
"Range : 0.000000 - 0.000000",
"Step : 0.010000",
"Channel_info_end",
"Channel_info_start",
"Channel : Al",
"Points : 0",
"Range : 0.000000 - 0.000000",
"Step : 0.010000",
"Channel_info_end",
"Channel_info_start",
"Channel : Si",
"Points : 0",
"Range : 0.000000 - 0.000000",
"Step : 0.010000",
"Channel_info_end",
"Channel_info_start",
"Channel : P ",
"Points : 0",
"Range : 0.000000 - 0.000000",
"Step : 0.010000",
"Channel_info_end",
"Channel_info_start",
"Channel : S ",
"Points : 0",
"Range : 0.000000 - 0.000000",
"Step : 0.010000",
"Channel_info_end",
"Channel_info_start",
"Channel : Cl",
"Points : 0",
"Range : 0.000000 - 0.000000",
"Step : 0.010000",
"Channel_info_end",
"Channel_info_start",
"Channel : K ",
"Points : 0",
"Range : 0.000000 - 0.000000",
"Step : 0.010000",
"Channel_info_end",
"Channel_info_start",
"Channel : Ca",
"Points : 0",
"Range : 0.000000 - 0.000000",
"Step : 0.010000",
"Channel_info_end",
"Channel_info_start",
"Channel : Ti",
"Points : 0",
"Range : 0.000000 - 0.000000",
"Step : 0.010000",
"Channel_info_end",
"Channel_info_start",
"Channel : V ",
"Points : 0",
"Range : 0.000000 - 0.000000",
"Step : 0.010000",
"Channel_info_end",
"Channel_info_start",
"Channel : Cr",
"Points : 0",
"Range : 0.000000 - 0.000000",
"Step : 0.010000",
"Channel_info_end",
"Channel_info_start",
"Channel : Mn",
"Points : 0",
"Range : 0.000000 - 0.000000",
"Step : 0.010000",
"Channel_info_end",
"Channel_info_start",
"Channel : Fe",
"Points : 0",
"Range : 0.000000 - 0.000000",
"Step : 0.010000",
"Channel_info_end",
"Channel_info_start",
"Channel : Cu",
"Points : 0",
"Range : 0.000000 - 0.000000",
"Step : 0.010000",
"Channel_info_end",
"Channel_info_start",
"Channel : Zn",
"Points : 0",
"Range : 0.000000 - 0.000000",
"Step : 0.010000",
"Channel_info_end",
"Channel_info_start",
"Channel : Sr",
"Points : 0",
"Range : 0.000000 - 0.000000",
"Step : 0.010000",
"Channel_info_end",
"Channel_info_start",
"Channel : Pb",
"Points : 0",
"Range : 0.000000 - 0.000000",
"Step : 0.010000",
"Channel_info_end",
"",
"Qualitative Result",
"--------------------------------------------------------------------------------",
"Element :  Sb, Rh",
"",
"Peak List",
"--------------------------------------------------------------------------------",
"Channel               Line        keV     Net Int.(cps/uA)",
"--------------------------------------------------------------------------------",
"Na                    SbLaESC      1.87     0.024",
"                      ----         2.12     0.018",
"                      SbLL         3.20     0.100",
"                      SbLa         3.60     2.639",
"                      SbLb1        3.86     1.646",
"                      SbLb2        4.12     0.278",
"                      SbLg1        4.36     0.131",
"                      SbLg2        4.60     0.103",
"                      RhKaC       19.16     0.136",
"                      ----        19.44     0.072",
"                      RhKa        20.08     0.093",
"--------------------------------------------------------------------------------",
"",
"Quantitative Result",
"--------------------------------------------------------------------------------",
"Analyte               Result             Std.Dev. Proc.-Calc. Line Intensity(cps/uA)",
"--------------------------------------------------------------------------------",
"====[No. 1 Layer]====< Layer1               >===============================",
"Layer1                   0.000 ug/cm2    -------- Flux       -------- --------",