File: inputs/edxCalibration/edx_raw/2010-06/Sb 15767.20100526000614.csv
"Sample    : Sb 15767",
"Operator  : luisf",
"Comment  : cubatao-g-policarbonato",
"Group     : kerr2007ag180cal_lt",
"Date       : 2010-05-26 00:02:00",
"",
"Mesurement Condition",
"------------------------------------------------------------------------------------",
"Instrument : 700HS2   Atmosphere : Vac.   Collimator : 10(mm)   Spin : No",
"------------------------------------------------------------------------------------",
"Analyte               TG kV   uA      FI Acq.(keV)  Anal.(keV)  Time(sec)     DT(%)",
"------------------------------------------------------------------------------------",
"Na                    Rh 50  393-Auto Al  0 - 20    0.8 - 1.2   Live -  179   16",
"",
"<Profile>",
"Channel_info_start",
"Channel : Na",
"Points : 2048",
"Range : 0.000000 - 20.48",
"Step : 0.010000",
"Channel_info_end",
"0",
"0",
"0",
"0",
"0",
"0",
"0",
"0",
"0",
"0",
"0",
"0",
"0",
"0",
"0",
"17",
"44",
"37",
"39",
"48",
"52",
"52",
"60",
"50",
"40",
"45",
"42",
"37",
"33",
"35",
"38",
"54",
"50",
"38",
"42",
"44",
"40",
"47",
"50",
"47",
"42",
"48",
"44",
"49",
"44",
"44",
"36",
"51",
"32",
"48",
"52",
"59",
"58",
"43",
"48",
"30",
"47",
"52",
"46",
"44",
"44",
"44",
"37",
"47",
"47",
"50",
"50",
"51",
"44",
"40",
"48",
"56",
"47",
"70",
"59",
"58",
"62",
"50",
"58",
"49",
"62",
"45",
"55",
"56",
"51",
"70",
"78",
"85",
"79",
"117",
"119",
"177",
"200",
"204",
"214",
"165",
"138",
"132",
"116",
"111",
"140",
"108",
"173",
"133",
"169",
"180",
"145",
"138",
"146",
"119",
"102",
"75",
"91",
"60",
"69",
"61",
"51",
"71",
"64",
"63",
"64",
"62",
"57",
"50",
"55",
"45",
"59",
"52",
"63",
"51",
"63",
"77",
"70",
"63",
"56",
"61",
"70",
"57",
"58",
"64",
"59",
"67",
"99",
"78",
"75",
"84",
"81",
"75",
"106",
"101",
"111",
"110",
"121",
"143",
"195",
"263",
"371",
"450",
"612",
"643",
"660",
"644",
"499",
"388",
"314",
"244",
"239",
"242",
"292",
"353",
"408",
"470",
"563",
"801",
"1330",
"2318",
"4173",
"6678",
"9872",
"12348",
"14088",
"13222",
"12052",
"9184",
"6798",
"4306",
"3112",
"2611",
"3143",
"4145",
"5815",
"7268",
"8609",
"8750",
"8411",
"7178",
"5982",
"4739",
"3666",
"2776",
"2081",
"1790",
"1682",
"1771",
"1926",
"1943",
"1860",
"1624",
"1265",
"892",
"652",
"484",
"410",
"455",
"577",
"755",
"902",
"998",
"951",
"832",
"761",
"558",
"407",
"303",
"305",
"326",
"425",
"502",
"669",
"707",
"710",
"682",
"591",
"469",
"316",
"223",
"186",
"125",
"114",
"80",
"71",
"74",
"63",
"60",
"73",
"55",
"72",
"73",
"71",
"60",
"72",
"58",
"63",
"81",
"80",
"84",
"87",
"95",
"94",
"85",
"84",
"80",
"107",
"69",
"80",
"99",
"85",
"93",
"75",
"73",
"117",
"90",
"68",
"85",
"63",
"64",
"79",
"72",
"69",
"77",
"86",
"84",
"89",
"59",
"87",
"87",
"85",
"82",
"110",
"114",
"127",
"122",
"119",
"153",
"145",
"146",
"156",
"139",
"161",
"154",
"156",
"155",
"160",
"149",
"158",
"157",
"165",
"149",
"161",
"163",
"163",
"165",
"173",
"169",
"176",
"140",
"183",
"151",
"156",
"170",
"151",
"152",
"142",
"154",
"140",
"142",
"139",
"116",
"127",
"120",
"128",
"124",
"138",
"143",
"127",
"138",
"129",
"130",
"150",
"120",
"155",
"128",
"160",
"128",
"137",
"157",
"139",
"143",
"167",
"166",
"148",
"146",
"166",
"164",
"168",
"170",
"163",
"164",
"185",
"179",
"204",
"176",
"183",
"162",
"190",
"166",
"187",
"146",
"184",
"175",
"176",
"168",
"155",
"190",
"168",
"191",
"192",
"186",
"179",
"168",
"199",
"168",
"199",
"210",
"221",
"216",
"216",
"214",
"211",
"186",
"203",
"215",
"252",
"193",
"195",
"225",
"222",
"228",
"230",
"238",
"243",
"236",
"224",
"233",
"196",
"234",
"180",
"166",
"168",
"157",
"177",
"175",
"179",
"156",
"139",
"170",
"170",
"143",
"188",
"165",
"140",
"173",
"146",
"176",
"172",
"169",
"195",
"216",
"215",
"211",
"224",
"191",
"221",
"190",
"181",
"226",
"235",
"175",
"185",
"189",
"161",
"155",
"168",
"160",
"187",
"192",
"179",
"176",
"198",
"177",
"209",
"178",
"208",
"191",
"200",
"196",
"179",
"176",
"205",
"210",
"217",
"195",
"193",
"192",
"219",
"199",
"180",
"212",
"197",
"172",
"175",
"204",
"178",
"177",
"184",
"180",
"186",
"178",
"176",
"144",
"170",
"162",
"161",
"161",
"158",
"132",
"165",
"160",
"156",
"146",
"149",
"149",
"183",
"148",
"173",
"170",
"186",
"158",
"150",
"163",
"175",
"156",
"166",
"170",
"173",
"152",
"160",
"150",
"179",
"146",
"138",
"163",
"180",
"142",
"175",
"168",
"157",
"156",
"179",
"145",
"154",
"181",
"161",
"187",
"149",
"154",
"181",
"165",
"176",
"180",
"175",
"145",
"172",
"164",
"174",
"177",
"184",
"177",
"174",
"190",
"180",
"177",
"191",
"198",
"164",
"163",
"189",
"170",
"157",
"151",
"190",
"183",
"164",
"157",
"145",
"154",
"161",
"144",
"177",
"169",
"157",
"164",
"154",
"162",
"152",
"149",
"162",
"157",
"167",
"140",
"152",
"152",
"175",
"142",
"163",
"142",
"157",
"133",
"151",
"125",
"151",
"175",
"157",
"168",
"142",
"145",
"148",
"153",
"168",
"133",
"153",
"124",
"146",
"157",
"155",
"154",
"160",
"166",
"129",
"151",
"133",
"157",
"134",
"151",
"126",
"129",
"162",
"149",
"144",
"144",
"140",
"149",
"131",
"153",
"166",
"138",
"172",
"139",
"141",
"145",
"120",
"133",
"161",
"153",
"160",
"131",
"121",
"139",
"124",
"137",
"117",
"142",
"132",
"145",
"150",
"131",
"145",
"126",
"134",
"109",
"120",
"138",
"138",
"128",
"143",
"134",
"118",
"160",
"153",
"136",
"113",
"134",
"139",
"148",
"127",
"136",
"116",
"129",
"138",
"122",
"136",
"142",
"155",
"137",
"139",
"142",
"130",
"130",
"133",
"136",
"119",
"129",
"142",
"136",
"118",
"137",
"144",
"119",
"134",
"125",
"140",
"126",
"129",
"106",
"138",
"119",
"145",
"128",
"138",
"128",
"108",
"121",
"127",
"117",
"145",
"117",
"145",
"121",
"132",
"106",
"117",
"128",
"118",
"125",
"132",
"120",
"108",
"110",
"121",
"125",
"116",
"121",
"127",
"126",
"115",
"152",
"115",
"143",
"95",
"119",
"118",
"118",
"106",
"109",
"142",
"122",
"119",
"107",
"109",
"106",
"116",
"109",
"131",
"111",
"128",
"110",
"125",
"114",
"128",
"106",
"119",
"99",
"120",
"118",
"104",
"103",
"111",
"110",
"120",
"108",
"120",
"114",
"124",
"124",
"97",
"117",
"110",
"102",
"102",
"120",
"106",
"107",
"121",
"118",
"102",
"102",
"98",
"125",
"106",
"98",
"107",
"95",
"94",
"113",
"105",
"111",
"104",
"98",
"113",
"110",
"110",
"91",
"117",
"89",
"91",
"103",
"95",
"109",
"108",
"96",
"102",
"109",
"98",
"91",
"107",
"98",
"109",
"111",
"103",
"103",
"97",
"105",
"83",
"114",
"95",
"90",
"108",
"79",
"99",
"107",
"108",
"115",
"115",
"75",
"110",
"90",
"98",
"102",
"106",
"108",
"87",
"80",
"107",
"104",
"102",
"96",
"97",
"84",
"101",
"102",
"104",
"103",
"110",
"116",
"104",
"105",
"95",
"108",
"98",
"99",
"97",
"83",
"109",
"96",
"110",
"93",
"114",
"82",
"98",
"73",
"87",
"90",
"95",
"121",
"85",
"89",
"102",
"86",
"96",
"89",
"93",
"74",
"109",
"92",
"99",
"86",
"89",
"71",
"89",
"82",
"98",
"93",
"95",
"93",
"83",
"98",
"83",
"91",
"71",
"84",
"117",
"93",
"103",
"98",
"79",
"83",
"94",
"95",
"113",
"113",
"96",
"77",
"106",
"83",
"106",
"87",
"116",
"101",
"104",
"108",
"87",
"115",
"105",
"101",
"97",
"99",
"114",
"81",
"107",
"92",
"110",
"110",
"113",
"104",
"116",
"83",
"116",
"104",
"116",
"95",
"105",
"111",
"120",
"93",
"146",
"121",
"118",
"153",
"158",
"127",
"154",
"145",
"164",
"134",
"170",
"175",
"191",
"193",
"203",
"220",
"236",
"238",
"259",
"294",
"321",
"334",
"360",
"399",
"443",
"440",
"482",
"487",
"495",
"461",
"562",
"550",
"513",
"557",
"614",
"540",
"640",
"526",
"583",
"527",
"522",
"490",
"524",
"537",
"463",
"427",
"423",
"408",
"351",
"346",
"319",
"302",
"308",
"233",
"230",
"211",
"226",
"184",
"172",
"176",
"180",
"158",
"172",
"129",
"158",
"154",
"124",
"139",
"185",
"168",
"225",
"205",
"263",
"264",
"290",
"320",
"316",
"344",
"366",
"386",
"420",
"380",
"380",
"379",
"362",
"286",
"317",
"244",
"249",
"212",
"174",
"137",
"131",
"107",
"102",
"104",
"89",
"72",
"71",
"78",
"127424",
"Channel_info_start",
"Channel : Mg",
"Points : 0",
"Range : 0.000000 - 0.000000",
"Step : 0.010000",
"Channel_info_end",
"Channel_info_start",
"Channel : Al",
"Points : 0",
"Range : 0.000000 - 0.000000",
"Step : 0.010000",
"Channel_info_end",
"Channel_info_start",
"Channel : Si",
"Points : 0",
"Range : 0.000000 - 0.000000",
"Step : 0.010000",
"Channel_info_end",
"Channel_info_start",
"Channel : P ",
"Points : 0",
"Range : 0.000000 - 0.000000",
"Step : 0.010000",
"Channel_info_end",
"Channel_info_start",
"Channel : S ",
"Points : 0",
"Range : 0.000000 - 0.000000",
"Step : 0.010000",
"Channel_info_end",
"Channel_info_start",
"Channel : Cl",
"Points : 0",
"Range : 0.000000 - 0.000000",
"Step : 0.010000",
"Channel_info_end",
"Channel_info_start",
"Channel : K ",
"Points : 0",
"Range : 0.000000 - 0.000000",
"Step : 0.010000",
"Channel_info_end",
"Channel_info_start",
"Channel : Ca",
"Points : 0",
"Range : 0.000000 - 0.000000",
"Step : 0.010000",
"Channel_info_end",
"Channel_info_start",
"Channel : Ti",
"Points : 0",
"Range : 0.000000 - 0.000000",
"Step : 0.010000",
"Channel_info_end",
"Channel_info_start",
"Channel : V ",
"Points : 0",
"Range : 0.000000 - 0.000000",
"Step : 0.010000",
"Channel_info_end",
"Channel_info_start",
"Channel : Cr",
"Points : 0",
"Range : 0.000000 - 0.000000",
"Step : 0.010000",
"Channel_info_end",
"Channel_info_start",
"Channel : Mn",
"Points : 0",
"Range : 0.000000 - 0.000000",
"Step : 0.010000",
"Channel_info_end",
"Channel_info_start",
"Channel : Fe",
"Points : 0",
"Range : 0.000000 - 0.000000",
"Step : 0.010000",
"Channel_info_end",
"Channel_info_start",
"Channel : Cu",
"Points : 0",
"Range : 0.000000 - 0.000000",
"Step : 0.010000",
"Channel_info_end",
"Channel_info_start",
"Channel : Zn",
"Points : 0",
"Range : 0.000000 - 0.000000",
"Step : 0.010000",
"Channel_info_end",
"Channel_info_start",
"Channel : Sr",
"Points : 0",
"Range : 0.000000 - 0.000000",
"Step : 0.010000",
"Channel_info_end",
"Channel_info_start",
"Channel : Pb",
"Points : 0",
"Range : 0.000000 - 0.000000",
"Step : 0.010000",
"Channel_info_end",
"",
"Qualitative Result",
"--------------------------------------------------------------------------------",
"Element :  Sb, Rh",
"",
"Peak List",
"--------------------------------------------------------------------------------",
"Channel               Line        keV     Net Int.(cps/uA)",
"--------------------------------------------------------------------------------",
"Na                    ----         1.86     0.028",
"                      ----         2.10     0.021",
"                      SbLL         3.19     0.090",
"                      SbLa         3.60     2.696",
"                      SbLb1        3.86     1.677",
"                      SbLb2        4.12     0.277",
"                      SbLg1        4.34     0.125",
"                      SbLg2        4.60     0.103",
"                      RhKaC       19.19     0.121",
"                      ----        19.48     0.052",
"                      RhKa        20.07     0.089",
"--------------------------------------------------------------------------------",
"",
"Quantitative Result",
"--------------------------------------------------------------------------------",
"Analyte               Result             Std.Dev. Proc.-Calc. Line Intensity(cps/uA)",
"--------------------------------------------------------------------------------",
"====[No. 1 Layer]====< Layer1               >===============================",
"Layer1                   0.000 ug/cm2    -------- Flux       -------- --------",