File: inputs/edxCalibration/edx_raw/2010-06/Sb 31509.20100626142108.csv
"Sample    : Sb 31509",
"Operator  : thiago",
"Comment  : cubatao-g-policarbonato",
"Group     : kerr2007ag180cal_lt",
"Date       : 2010-06-26 14:16:56",
"",
"Mesurement Condition",
"------------------------------------------------------------------------------------",
"Instrument : 700HS2   Atmosphere : Vac.   Collimator : 10(mm)   Spin : No",
"------------------------------------------------------------------------------------",
"Analyte               TG kV   uA      FI Acq.(keV)  Anal.(keV)  Time(sec)     DT(%)",
"------------------------------------------------------------------------------------",
"Na                    Rh 50  360-Auto Al  0 - 20    0.8 - 1.2   Live -  180   15",
"",
"<Profile>",
"Channel_info_start",
"Channel : Na",
"Points : 2048",
"Range : 0.000000 - 20.48",
"Step : 0.010000",
"Channel_info_end",
"0",
"0",
"0",
"0",
"0",
"0",
"0",
"0",
"0",
"0",
"0",
"0",
"0",
"0",
"0",
"22",
"50",
"34",
"39",
"44",
"45",
"47",
"49",
"29",
"34",
"42",
"42",
"44",
"29",
"42",
"49",
"45",
"49",
"33",
"33",
"40",
"37",
"53",
"41",
"42",
"60",
"36",
"47",
"39",
"50",
"34",
"44",
"37",
"39",
"32",
"36",
"44",
"45",
"47",
"40",
"53",
"33",
"47",
"36",
"37",
"54",
"27",
"57",
"40",
"41",
"48",
"30",
"54",
"58",
"59",
"50",
"64",
"66",
"47",
"74",
"49",
"57",
"68",
"59",
"58",
"47",
"58",
"79",
"70",
"63",
"50",
"62",
"57",
"70",
"105",
"147",
"156",
"206",
"191",
"211",
"183",
"145",
"130",
"147",
"130",
"169",
"164",
"188",
"182",
"186",
"143",
"149",
"120",
"93",
"103",
"88",
"94",
"48",
"66",
"83",
"77",
"89",
"81",
"85",
"70",
"72",
"60",
"71",
"69",
"63",
"57",
"62",
"48",
"45",
"51",
"65",
"60",
"57",
"64",
"69",
"58",
"63",
"59",
"50",
"77",
"60",
"81",
"77",
"86",
"89",
"78",
"81",
"69",
"77",
"91",
"103",
"107",
"121",
"147",
"180",
"221",
"335",
"403",
"523",
"609",
"675",
"600",
"523",
"417",
"311",
"228",
"242",
"261",
"304",
"344",
"404",
"485",
"569",
"657",
"1269",
"2123",
"3870",
"6107",
"9112",
"11872",
"13660",
"13155",
"12494",
"9788",
"7089",
"4777",
"3628",
"2871",
"3147",
"3912",
"5516",
"6900",
"8235",
"8542",
"8437",
"7372",
"6256",
"4786",
"3606",
"2789",
"2053",
"1779",
"1695",
"1681",
"1830",
"1940",
"1858",
"1652",
"1333",
"894",
"623",
"441",
"405",
"436",
"499",
"641",
"841",
"966",
"955",
"879",
"754",
"536",
"444",
"355",
"296",
"332",
"397",
"485",
"590",
"708",
"688",
"638",
"537",
"437",
"354",
"232",
"172",
"103",
"83",
"83",
"82",
"59",
"53",
"57",
"63",
"53",
"66",
"33",
"59",
"58",
"61",
"52",
"53",
"79",
"66",
"87",
"88",
"77",
"73",
"88",
"90",
"96",
"99",
"94",
"98",
"98",
"96",
"100",
"84",
"68",
"85",
"61",
"77",
"86",
"68",
"78",
"74",
"73",
"71",
"56",
"83",
"56",
"59",
"72",
"79",
"78",
"72",
"81",
"84",
"82",
"100",
"103",
"85",
"91",
"108",
"108",
"118",
"105",
"125",
"121",
"138",
"152",
"144",
"121",
"127",
"147",
"143",
"139",
"113",
"138",
"121",
"136",
"143",
"143",
"146",
"157",
"160",
"162",
"167",
"130",
"169",
"131",
"147",
"138",
"135",
"135",
"127",
"93",
"118",
"117",
"106",
"111",
"121",
"117",
"128",
"128",
"126",
"123",
"112",
"158",
"122",
"157",
"146",
"132",
"144",
"147",
"152",
"146",
"173",
"183",
"159",
"182",
"152",
"171",
"148",
"184",
"168",
"148",
"142",
"154",
"183",
"177",
"193",
"161",
"169",
"170",
"163",
"184",
"181",
"192",
"156",
"163",
"170",
"159",
"143",
"151",
"185",
"175",
"156",
"156",
"159",
"161",
"160",
"171",
"194",
"184",
"174",
"167",
"166",
"191",
"195",
"189",
"191",
"182",
"187",
"144",
"200",
"171",
"209",
"194",
"191",
"187",
"222",
"191",
"176",
"170",
"185",
"173",
"183",
"161",
"130",
"152",
"135",
"161",
"167",
"125",
"150",
"163",
"156",
"175",
"183",
"158",
"151",
"154",
"149",
"163",
"204",
"186",
"228",
"208",
"229",
"241",
"226",
"211",
"229",
"221",
"180",
"180",
"172",
"146",
"172",
"155",
"188",
"161",
"180",
"175",
"183",
"193",
"188",
"173",
"186",
"188",
"176",
"164",
"194",
"182",
"162",
"167",
"192",
"192",
"195",
"163",
"179",
"180",
"210",
"157",
"159",
"155",
"152",
"176",
"176",
"163",
"186",
"137",
"174",
"151",
"143",
"157",
"167",
"146",
"171",
"149",
"150",
"145",
"156",
"146",
"130",
"133",
"145",
"128",
"124",
"138",
"152",
"144",
"135",
"144",
"160",
"132",
"149",
"148",
"145",
"132",
"147",
"131",
"125",
"157",
"170",
"125",
"138",
"154",
"142",
"130",
"150",
"134",
"158",
"160",
"152",
"174",
"150",
"148",
"156",
"136",
"148",
"139",
"161",
"154",
"139",
"151",
"174",
"143",
"174",
"151",
"192",
"155",
"174",
"203",
"169",
"174",
"170",
"157",
"195",
"192",
"181",
"156",
"169",
"175",
"144",
"140",
"157",
"144",
"175",
"142",
"148",
"138",
"147",
"148",
"158",
"149",
"158",
"163",
"142",
"148",
"135",
"171",
"148",
"121",
"152",
"142",
"148",
"160",
"173",
"135",
"126",
"136",
"152",
"132",
"142",
"131",
"140",
"143",
"123",
"131",
"137",
"121",
"137",
"143",
"139",
"113",
"108",
"142",
"142",
"128",
"147",
"120",
"132",
"131",
"144",
"125",
"149",
"139",
"122",
"151",
"149",
"133",
"151",
"128",
"126",
"100",
"155",
"131",
"148",
"127",
"134",
"142",
"131",
"131",
"149",
"125",
"127",
"138",
"146",
"127",
"136",
"122",
"139",
"137",
"130",
"115",
"126",
"135",
"146",
"112",
"123",
"128",
"135",
"113",
"136",
"123",
"128",
"101",
"126",
"118",
"131",
"120",
"113",
"118",
"108",
"110",
"127",
"126",
"107",
"124",
"127",
"120",
"137",
"114",
"148",
"117",
"105",
"127",
"114",
"124",
"130",
"122",
"119",
"128",
"120",
"121",
"144",
"115",
"132",
"147",
"134",
"124",
"139",
"137",
"120",
"122",
"118",
"121",
"124",
"91",
"139",
"120",
"119",
"109",
"108",
"117",
"131",
"99",
"107",
"106",
"103",
"114",
"117",
"115",
"131",
"110",
"107",
"140",
"103",
"99",
"119",
"103",
"148",
"100",
"125",
"98",
"118",
"114",
"101",
"117",
"106",
"105",
"120",
"113",
"114",
"105",
"111",
"114",
"136",
"108",
"102",
"119",
"100",
"105",
"112",
"106",
"128",
"110",
"111",
"119",
"87",
"98",
"101",
"121",
"110",
"102",
"98",
"121",
"106",
"109",
"111",
"108",
"114",
"78",
"83",
"101",
"123",
"95",
"119",
"99",
"111",
"94",
"102",
"96",
"96",
"96",
"126",
"105",
"111",
"86",
"119",
"93",
"108",
"101",
"103",
"101",
"115",
"81",
"91",
"86",
"79",
"99",
"93",
"113",
"83",
"103",
"96",
"88",
"94",
"108",
"103",
"100",
"95",
"98",
"94",
"87",
"84",
"88",
"111",
"96",
"94",
"100",
"73",
"106",
"98",
"75",
"97",
"96",
"95",
"94",
"90",
"100",
"89",
"83",
"93",
"100",
"96",
"101",
"84",
"110",
"95",
"109",
"97",
"77",
"99",
"96",
"107",
"75",
"84",
"74",
"97",
"73",
"72",
"84",
"83",
"93",
"86",
"99",
"94",
"82",
"95",
"62",
"75",
"98",
"81",
"78",
"98",
"84",
"83",
"84",
"114",
"91",
"83",
"88",
"97",
"89",
"79",
"77",
"102",
"89",
"95",
"88",
"82",
"81",
"114",
"73",
"101",
"89",
"88",
"82",
"79",
"86",
"77",
"76",
"90",
"74",
"100",
"96",
"84",
"88",
"99",
"72",
"73",
"91",
"86",
"87",
"74",
"86",
"97",
"76",
"82",
"72",
"102",
"86",
"98",
"96",
"85",
"81",
"98",
"90",
"93",
"84",
"86",
"91",
"105",
"85",
"94",
"93",
"93",
"106",
"76",
"75",
"95",
"83",
"101",
"94",
"95",
"95",
"95",
"93",
"101",
"86",
"89",
"98",
"102",
"86",
"86",
"121",
"105",
"103",
"107",
"100",
"110",
"121",
"105",
"113",
"121",
"124",
"132",
"131",
"151",
"156",
"162",
"139",
"167",
"173",
"200",
"187",
"186",
"230",
"262",
"232",
"270",
"281",
"314",
"330",
"366",
"355",
"422",
"407",
"445",
"444",
"489",
"468",
"586",
"493",
"512",
"514",
"581",
"528",
"565",
"494",
"522",
"482",
"463",
"421",
"406",
"448",
"392",
"344",
"332",
"340",
"306",
"264",
"286",
"221",
"220",
"238",
"210",
"172",
"192",
"177",
"159",
"146",
"146",
"134",
"124",
"130",
"159",
"127",
"176",
"164",
"183",
"206",
"213",
"252",
"262",
"274",
"301",
"302",
"351",
"362",
"391",
"388",
"371",
"338",
"366",
"299",
"279",
"246",
"232",
"209",
"182",
"148",
"128",
"117",
"99",
"70",
"97",
"73",
"85",
"77",
"122084",
"Channel_info_start",
"Channel : Mg",
"Points : 0",
"Range : 0.000000 - 0.000000",
"Step : 0.010000",
"Channel_info_end",
"Channel_info_start",
"Channel : Al",
"Points : 0",
"Range : 0.000000 - 0.000000",
"Step : 0.010000",
"Channel_info_end",
"Channel_info_start",
"Channel : Si",
"Points : 0",
"Range : 0.000000 - 0.000000",
"Step : 0.010000",
"Channel_info_end",
"Channel_info_start",
"Channel : P ",
"Points : 0",
"Range : 0.000000 - 0.000000",
"Step : 0.010000",
"Channel_info_end",
"Channel_info_start",
"Channel : S ",
"Points : 0",
"Range : 0.000000 - 0.000000",
"Step : 0.010000",
"Channel_info_end",
"Channel_info_start",
"Channel : Cl",
"Points : 0",
"Range : 0.000000 - 0.000000",
"Step : 0.010000",
"Channel_info_end",
"Channel_info_start",
"Channel : K ",
"Points : 0",
"Range : 0.000000 - 0.000000",
"Step : 0.010000",
"Channel_info_end",
"Channel_info_start",
"Channel : Ca",
"Points : 0",
"Range : 0.000000 - 0.000000",
"Step : 0.010000",
"Channel_info_end",
"Channel_info_start",
"Channel : Ti",
"Points : 0",
"Range : 0.000000 - 0.000000",
"Step : 0.010000",
"Channel_info_end",
"Channel_info_start",
"Channel : V ",
"Points : 0",
"Range : 0.000000 - 0.000000",
"Step : 0.010000",
"Channel_info_end",
"Channel_info_start",
"Channel : Cr",
"Points : 0",
"Range : 0.000000 - 0.000000",
"Step : 0.010000",
"Channel_info_end",
"Channel_info_start",
"Channel : Mn",
"Points : 0",
"Range : 0.000000 - 0.000000",
"Step : 0.010000",
"Channel_info_end",
"Channel_info_start",
"Channel : Fe",
"Points : 0",
"Range : 0.000000 - 0.000000",
"Step : 0.010000",
"Channel_info_end",
"Channel_info_start",
"Channel : Cu",
"Points : 0",
"Range : 0.000000 - 0.000000",
"Step : 0.010000",
"Channel_info_end",
"Channel_info_start",
"Channel : Zn",
"Points : 0",
"Range : 0.000000 - 0.000000",
"Step : 0.010000",
"Channel_info_end",
"Channel_info_start",
"Channel : Sr",
"Points : 0",
"Range : 0.000000 - 0.000000",
"Step : 0.010000",
"Channel_info_end",
"Channel_info_start",
"Channel : Pb",
"Points : 0",
"Range : 0.000000 - 0.000000",
"Step : 0.010000",
"Channel_info_end",
"",
"Qualitative Result",
"--------------------------------------------------------------------------------",
"Element :  Sb, P , Zn, Ru",
"",
"Peak List",
"--------------------------------------------------------------------------------",
"Channel               Line        keV     Net Int.(cps/uA)",
"--------------------------------------------------------------------------------",
"Na                    SbLaESC      1.84     0.028",
"                      P Ka         2.04     0.024",
"                      SbLL         3.20     0.103",
"                      SbLa         3.60     2.854",
"                      SbLb1        3.86     1.778",
"                      SbLb2        4.10     0.318",
"                      SbLg1        4.36     0.138",
"                      SbLg2        4.59     0.112",
"                      ZnKa         8.61     0.024",
"                      RuKa        19.20     0.138",
"                      ----        19.49     0.046",
"                      ----        19.96     0.052",
"--------------------------------------------------------------------------------",
"",
"Quantitative Result",
"--------------------------------------------------------------------------------",
"Analyte               Result             Std.Dev. Proc.-Calc. Line Intensity(cps/uA)",
"--------------------------------------------------------------------------------",
"====[No. 1 Layer]====< Layer1               >===============================",
"Layer1                   0.000 ug/cm2    -------- Flux       -------- --------",