File: inputs/edxCalibration/edx_raw/2010-06/Sb 31509.20100526003038.csv
"Sample    : Sb 31509",
"Operator  : luisf",
"Comment  : cubatao-g-policarbonato",
"Group     : kerr2007ag180cal_lt",
"Date       : 2010-05-26 00:24:35",
"",
"Mesurement Condition",
"------------------------------------------------------------------------------------",
"Instrument : 700HS2   Atmosphere : Vac.   Collimator : 10(mm)   Spin : No",
"------------------------------------------------------------------------------------",
"Analyte               TG kV   uA      FI Acq.(keV)  Anal.(keV)  Time(sec)     DT(%)",
"------------------------------------------------------------------------------------",
"Na                    Rh 50  360-Auto Al  0 - 20    0.8 - 1.2   Live -  179   15",
"",
"<Profile>",
"Channel_info_start",
"Channel : Na",
"Points : 2048",
"Range : 0.000000 - 20.48",
"Step : 0.010000",
"Channel_info_end",
"0",
"0",
"0",
"0",
"0",
"0",
"0",
"0",
"0",
"0",
"0",
"0",
"0",
"0",
"2",
"17",
"36",
"34",
"59",
"42",
"50",
"35",
"34",
"56",
"40",
"38",
"33",
"35",
"45",
"50",
"37",
"42",
"46",
"33",
"44",
"40",
"35",
"34",
"54",
"29",
"40",
"29",
"37",
"37",
"51",
"38",
"49",
"35",
"42",
"33",
"40",
"35",
"37",
"46",
"49",
"35",
"47",
"50",
"41",
"56",
"53",
"45",
"44",
"38",
"59",
"48",
"60",
"53",
"44",
"46",
"51",
"46",
"65",
"59",
"71",
"60",
"71",
"57",
"42",
"69",
"59",
"52",
"53",
"47",
"50",
"59",
"73",
"63",
"82",
"84",
"142",
"176",
"186",
"221",
"192",
"168",
"123",
"159",
"127",
"173",
"169",
"158",
"164",
"160",
"156",
"164",
"143",
"136",
"123",
"107",
"110",
"79",
"97",
"53",
"69",
"62",
"81",
"69",
"75",
"57",
"70",
"45",
"57",
"63",
"61",
"54",
"45",
"42",
"37",
"74",
"42",
"66",
"68",
"52",
"66",
"71",
"53",
"63",
"78",
"84",
"61",
"63",
"81",
"79",
"81",
"70",
"94",
"95",
"74",
"95",
"85",
"86",
"98",
"126",
"170",
"229",
"310",
"413",
"544",
"618",
"639",
"598",
"478",
"400",
"301",
"261",
"223",
"281",
"290",
"351",
"373",
"485",
"588",
"733",
"1259",
"2284",
"4253",
"6358",
"9567",
"11883",
"13515",
"13290",
"11907",
"9290",
"6740",
"4687",
"3412",
"2786",
"3202",
"4220",
"5927",
"7131",
"8534",
"8364",
"8223",
"7011",
"5936",
"4560",
"3477",
"2616",
"2028",
"1734",
"1596",
"1779",
"1969",
"1928",
"1711",
"1512",
"1224",
"867",
"630",
"434",
"416",
"440",
"572",
"745",
"905",
"930",
"932",
"794",
"768",
"482",
"406",
"307",
"342",
"280",
"387",
"506",
"646",
"713",
"662",
"678",
"550",
"438",
"281",
"209",
"168",
"114",
"102",
"75",
"83",
"69",
"64",
"46",
"52",
"65",
"65",
"54",
"62",
"49",
"66",
"66",
"79",
"77",
"94",
"84",
"101",
"94",
"75",
"106",
"72",
"65",
"90",
"111",
"91",
"97",
"140",
"87",
"88",
"99",
"68",
"89",
"81",
"82",
"84",
"64",
"71",
"88",
"66",
"64",
"56",
"64",
"74",
"74",
"69",
"88",
"64",
"70",
"90",
"70",
"99",
"100",
"95",
"98",
"103",
"110",
"112",
"137",
"125",
"154",
"161",
"137",
"135",
"146",
"122",
"146",
"156",
"147",
"152",
"158",
"150",
"145",
"156",
"142",
"164",
"148",
"161",
"128",
"142",
"143",
"138",
"120",
"135",
"147",
"115",
"110",
"133",
"103",
"113",
"118",
"123",
"123",
"100",
"112",
"118",
"120",
"161",
"123",
"121",
"130",
"142",
"109",
"155",
"142",
"135",
"156",
"154",
"144",
"161",
"149",
"185",
"170",
"183",
"174",
"177",
"184",
"175",
"171",
"182",
"169",
"176",
"191",
"191",
"167",
"187",
"195",
"162",
"181",
"172",
"155",
"173",
"176",
"161",
"155",
"177",
"184",
"159",
"172",
"168",
"152",
"189",
"168",
"187",
"162",
"175",
"156",
"160",
"168",
"181",
"183",
"177",
"192",
"175",
"159",
"192",
"180",
"185",
"193",
"179",
"211",
"210",
"212",
"228",
"194",
"179",
"173",
"155",
"157",
"156",
"168",
"145",
"146",
"169",
"140",
"146",
"124",
"163",
"139",
"161",
"147",
"154",
"156",
"158",
"170",
"167",
"150",
"187",
"189",
"226",
"210",
"226",
"222",
"238",
"229",
"212",
"180",
"203",
"182",
"204",
"167",
"183",
"167",
"168",
"183",
"192",
"170",
"149",
"208",
"212",
"203",
"195",
"195",
"181",
"181",
"188",
"179",
"165",
"179",
"184",
"195",
"181",
"173",
"177",
"143",
"196",
"185",
"191",
"146",
"180",
"189",
"183",
"154",
"149",
"156",
"165",
"165",
"149",
"160",
"154",
"151",
"155",
"149",
"155",
"115",
"132",
"130",
"125",
"136",
"145",
"144",
"134",
"132",
"147",
"130",
"147",
"146",
"133",
"144",
"136",
"143",
"135",
"144",
"165",
"126",
"144",
"121",
"133",
"154",
"134",
"135",
"142",
"148",
"151",
"136",
"151",
"145",
"140",
"161",
"139",
"157",
"149",
"177",
"143",
"147",
"173",
"148",
"163",
"168",
"183",
"147",
"156",
"159",
"180",
"170",
"189",
"170",
"179",
"155",
"170",
"169",
"175",
"162",
"145",
"161",
"171",
"161",
"155",
"148",
"162",
"165",
"175",
"159",
"154",
"146",
"142",
"136",
"170",
"137",
"121",
"151",
"162",
"144",
"173",
"151",
"151",
"147",
"149",
"138",
"121",
"135",
"157",
"131",
"149",
"120",
"155",
"118",
"132",
"144",
"125",
"118",
"122",
"148",
"149",
"119",
"126",
"139",
"157",
"126",
"152",
"117",
"156",
"118",
"147",
"122",
"139",
"143",
"126",
"143",
"167",
"145",
"127",
"130",
"123",
"133",
"138",
"128",
"134",
"148",
"164",
"121",
"158",
"144",
"131",
"121",
"113",
"157",
"149",
"121",
"121",
"134",
"119",
"139",
"124",
"117",
"109",
"115",
"133",
"142",
"124",
"114",
"118",
"134",
"122",
"115",
"121",
"126",
"130",
"117",
"137",
"127",
"155",
"118",
"131",
"123",
"144",
"114",
"111",
"151",
"107",
"107",
"138",
"109",
"106",
"142",
"134",
"122",
"110",
"139",
"133",
"121",
"113",
"100",
"126",
"117",
"120",
"117",
"109",
"121",
"135",
"132",
"133",
"119",
"123",
"117",
"115",
"112",
"125",
"108",
"108",
"110",
"121",
"112",
"105",
"132",
"128",
"102",
"124",
"91",
"120",
"130",
"139",
"115",
"103",
"110",
"130",
"122",
"112",
"121",
"109",
"121",
"115",
"123",
"121",
"122",
"138",
"112",
"117",
"99",
"90",
"119",
"108",
"124",
"117",
"114",
"126",
"117",
"96",
"99",
"114",
"94",
"127",
"99",
"109",
"113",
"119",
"98",
"99",
"115",
"107",
"87",
"131",
"101",
"101",
"100",
"112",
"96",
"113",
"109",
"110",
"103",
"119",
"101",
"109",
"100",
"110",
"96",
"102",
"107",
"115",
"84",
"112",
"93",
"112",
"109",
"94",
"95",
"122",
"107",
"89",
"105",
"118",
"113",
"108",
"98",
"94",
"110",
"109",
"93",
"87",
"94",
"103",
"91",
"102",
"90",
"111",
"107",
"86",
"96",
"106",
"93",
"102",
"113",
"94",
"95",
"99",
"87",
"112",
"89",
"90",
"108",
"123",
"101",
"85",
"114",
"112",
"94",
"101",
"84",
"96",
"107",
"101",
"93",
"103",
"102",
"97",
"95",
"105",
"79",
"101",
"77",
"121",
"73",
"103",
"79",
"72",
"85",
"112",
"100",
"85",
"94",
"82",
"95",
"107",
"78",
"95",
"57",
"93",
"96",
"77",
"95",
"76",
"95",
"93",
"83",
"88",
"88",
"77",
"86",
"84",
"74",
"105",
"82",
"82",
"84",
"98",
"82",
"107",
"85",
"96",
"77",
"75",
"75",
"89",
"81",
"91",
"88",
"68",
"83",
"78",
"88",
"85",
"76",
"77",
"93",
"88",
"93",
"86",
"93",
"86",
"84",
"94",
"85",
"81",
"68",
"95",
"94",
"81",
"76",
"85",
"88",
"85",
"91",
"82",
"88",
"101",
"82",
"69",
"84",
"89",
"86",
"89",
"105",
"83",
"103",
"97",
"82",
"93",
"83",
"89",
"89",
"83",
"91",
"99",
"85",
"88",
"95",
"91",
"108",
"91",
"99",
"101",
"102",
"106",
"96",
"97",
"111",
"113",
"108",
"118",
"107",
"111",
"91",
"109",
"89",
"101",
"87",
"113",
"132",
"106",
"131",
"128",
"124",
"144",
"133",
"152",
"150",
"150",
"172",
"200",
"197",
"195",
"226",
"259",
"290",
"291",
"329",
"353",
"344",
"358",
"400",
"421",
"463",
"480",
"450",
"523",
"518",
"513",
"485",
"529",
"504",
"580",
"479",
"499",
"510",
"492",
"463",
"463",
"424",
"447",
"397",
"389",
"372",
"355",
"301",
"302",
"269",
"233",
"218",
"234",
"206",
"189",
"150",
"182",
"140",
"175",
"145",
"149",
"130",
"157",
"117",
"142",
"147",
"180",
"164",
"177",
"206",
"235",
"233",
"268",
"275",
"319",
"339",
"361",
"353",
"356",
"366",
"353",
"309",
"347",
"248",
"275",
"232",
"212",
"171",
"140",
"119",
"119",
"94",
"87",
"82",
"69",
"89",
"79",
"89",
"121316",
"Channel_info_start",
"Channel : Mg",
"Points : 0",
"Range : 0.000000 - 0.000000",
"Step : 0.010000",
"Channel_info_end",
"Channel_info_start",
"Channel : Al",
"Points : 0",
"Range : 0.000000 - 0.000000",
"Step : 0.010000",
"Channel_info_end",
"Channel_info_start",
"Channel : Si",
"Points : 0",
"Range : 0.000000 - 0.000000",
"Step : 0.010000",
"Channel_info_end",
"Channel_info_start",
"Channel : P ",
"Points : 0",
"Range : 0.000000 - 0.000000",
"Step : 0.010000",
"Channel_info_end",
"Channel_info_start",
"Channel : S ",
"Points : 0",
"Range : 0.000000 - 0.000000",
"Step : 0.010000",
"Channel_info_end",
"Channel_info_start",
"Channel : Cl",
"Points : 0",
"Range : 0.000000 - 0.000000",
"Step : 0.010000",
"Channel_info_end",
"Channel_info_start",
"Channel : K ",
"Points : 0",
"Range : 0.000000 - 0.000000",
"Step : 0.010000",
"Channel_info_end",
"Channel_info_start",
"Channel : Ca",
"Points : 0",
"Range : 0.000000 - 0.000000",
"Step : 0.010000",
"Channel_info_end",
"Channel_info_start",
"Channel : Ti",
"Points : 0",
"Range : 0.000000 - 0.000000",
"Step : 0.010000",
"Channel_info_end",
"Channel_info_start",
"Channel : V ",
"Points : 0",
"Range : 0.000000 - 0.000000",
"Step : 0.010000",
"Channel_info_end",
"Channel_info_start",
"Channel : Cr",
"Points : 0",
"Range : 0.000000 - 0.000000",
"Step : 0.010000",
"Channel_info_end",
"Channel_info_start",
"Channel : Mn",
"Points : 0",
"Range : 0.000000 - 0.000000",
"Step : 0.010000",
"Channel_info_end",
"Channel_info_start",
"Channel : Fe",
"Points : 0",
"Range : 0.000000 - 0.000000",
"Step : 0.010000",
"Channel_info_end",
"Channel_info_start",
"Channel : Cu",
"Points : 0",
"Range : 0.000000 - 0.000000",
"Step : 0.010000",
"Channel_info_end",
"Channel_info_start",
"Channel : Zn",
"Points : 0",
"Range : 0.000000 - 0.000000",
"Step : 0.010000",
"Channel_info_end",
"Channel_info_start",
"Channel : Sr",
"Points : 0",
"Range : 0.000000 - 0.000000",
"Step : 0.010000",
"Channel_info_end",
"Channel_info_start",
"Channel : Pb",
"Points : 0",
"Range : 0.000000 - 0.000000",
"Step : 0.010000",
"Channel_info_end",
"",
"Qualitative Result",
"--------------------------------------------------------------------------------",
"Element :  P , Sb, Te, Ru",
"",
"Peak List",
"--------------------------------------------------------------------------------",
"Channel               Line        keV     Net Int.(cps/uA)",
"--------------------------------------------------------------------------------",
"Na                    ----         1.86     0.030",
"                      P Ka         2.01     0.023",
"                      SbLL         3.20     0.100",
"                      SbLa         3.60     2.851",
"                      SbLb1        3.84     1.454",
"                      TeLa         3.84     0.312",
"                      TeLb4        4.03     0.159",
"                      SbLb2        4.12     0.279",
"                      SbLg1        4.35     0.136",
"                      SbLg2        4.60     0.109",
"                      ----        19.03     0.102",
"                      RuKa        19.25     0.126",
"                      ----        19.94     0.043",
"--------------------------------------------------------------------------------",
"",
"Quantitative Result",
"--------------------------------------------------------------------------------",
"Analyte               Result             Std.Dev. Proc.-Calc. Line Intensity(cps/uA)",
"--------------------------------------------------------------------------------",
"====[No. 1 Layer]====< Layer1               >===============================",
"Layer1                   0.000 ug/cm2    -------- Flux       -------- --------",