File: inputs/edxCalibration/edx_raw/2010-06/Se 15759.20100611012223.csv
"Sample    : Se 15759",
"Operator  : Luís",
"Comment  : cubatao-g-policarbonato",
"Group     : kerr2007ag180cal_lt",
"Date       : 2010-06-11 01:18:19",
"",
"Mesurement Condition",
"------------------------------------------------------------------------------------",
"Instrument : 700HS2   Atmosphere : Vac.   Collimator : 10(mm)   Spin : No",
"------------------------------------------------------------------------------------",
"Analyte               TG kV   uA      FI Acq.(keV)  Anal.(keV)  Time(sec)     DT(%)",
"------------------------------------------------------------------------------------",
"Na                    Rh 50  168-Auto Al  0 - 20    0.8 - 1.2   Live -  180   15",
"",
"<Profile>",
"Channel_info_start",
"Channel : Na",
"Points : 2048",
"Range : 0.000000 - 20.48",
"Step : 0.010000",
"Channel_info_end",
"0",
"0",
"0",
"0",
"0",
"0",
"0",
"0",
"0",
"0",
"0",
"0",
"0",
"0",
"0",
"4",
"23",
"30",
"16",
"31",
"20",
"29",
"26",
"29",
"20",
"24",
"27",
"22",
"23",
"22",
"21",
"9",
"20",
"20",
"16",
"13",
"13",
"15",
"12",
"10",
"15",
"17",
"10",
"14",
"17",
"11",
"10",
"13",
"8",
"9",
"10",
"17",
"12",
"27",
"17",
"12",
"22",
"25",
"47",
"58",
"75",
"94",
"88",
"83",
"111",
"214",
"410",
"693",
"1016",
"1266",
"1357",
"1213",
"1003",
"728",
"495",
"288",
"203",
"105",
"59",
"38",
"22",
"21",
"26",
"26",
"20",
"14",
"18",
"17",
"12",
"15",
"7",
"16",
"20",
"12",
"9",
"17",
"13",
"25",
"29",
"39",
"43",
"49",
"33",
"33",
"17",
"8",
"24",
"17",
"14",
"11",
"10",
"15",
"18",
"13",
"14",
"10",
"13",
"14",
"11",
"8",
"9",
"14",
"10",
"8",
"10",
"9",
"8",
"10",
"11",
"8",
"12",
"14",
"7",
"16",
"10",
"13",
"16",
"17",
"13",
"11",
"18",
"10",
"13",
"8",
"10",
"15",
"11",
"16",
"12",
"5",
"7",
"8",
"7",
"9",
"8",
"10",
"13",
"14",
"15",
"8",
"9",
"5",
"20",
"15",
"11",
"12",
"12",
"11",
"12",
"8",
"15",
"14",
"16",
"10",
"13",
"10",
"24",
"23",
"59",
"89",
"134",
"231",
"266",
"375",
"394",
"384",
"314",
"252",
"174",
"96",
"73",
"53",
"41",
"31",
"34",
"33",
"47",
"42",
"55",
"47",
"63",
"54",
"48",
"39",
"47",
"37",
"33",
"22",
"21",
"17",
"21",
"17",
"22",
"23",
"21",
"14",
"24",
"23",
"26",
"29",
"18",
"37",
"38",
"33",
"34",
"37",
"39",
"35",
"33",
"36",
"31",
"33",
"36",
"29",
"25",
"33",
"43",
"30",
"31",
"17",
"27",
"27",
"30",
"25",
"30",
"26",
"26",
"28",
"38",
"29",
"22",
"27",
"28",
"27",
"30",
"25",
"23",
"33",
"18",
"25",
"27",
"29",
"29",
"40",
"34",
"22",
"37",
"34",
"30",
"34",
"35",
"36",
"46",
"41",
"33",
"34",
"29",
"36",
"30",
"33",
"34",
"34",
"31",
"45",
"49",
"30",
"52",
"38",
"50",
"42",
"37",
"53",
"35",
"43",
"37",
"52",
"53",
"46",
"48",
"39",
"47",
"53",
"35",
"53",
"60",
"34",
"58",
"64",
"46",
"51",
"60",
"46",
"50",
"50",
"52",
"61",
"58",
"71",
"67",
"69",
"86",
"61",
"78",
"84",
"60",
"65",
"47",
"56",
"73",
"53",
"77",
"67",
"81",
"77",
"62",
"71",
"71",
"63",
"61",
"74",
"64",
"73",
"80",
"66",
"68",
"61",
"55",
"71",
"71",
"69",
"87",
"72",
"83",
"79",
"62",
"69",
"58",
"64",
"61",
"84",
"56",
"51",
"63",
"53",
"74",
"67",
"61",
"77",
"84",
"71",
"72",
"81",
"83",
"69",
"67",
"66",
"48",
"60",
"72",
"60",
"63",
"65",
"75",
"61",
"69",
"66",
"54",
"75",
"66",
"65",
"60",
"76",
"74",
"67",
"74",
"77",
"89",
"88",
"105",
"92",
"104",
"99",
"121",
"98",
"72",
"102",
"69",
"92",
"76",
"91",
"73",
"69",
"71",
"59",
"80",
"59",
"93",
"81",
"56",
"75",
"74",
"80",
"76",
"78",
"69",
"72",
"78",
"91",
"104",
"104",
"97",
"108",
"109",
"97",
"109",
"103",
"84",
"73",
"66",
"93",
"72",
"83",
"75",
"69",
"78",
"79",
"72",
"63",
"85",
"74",
"53",
"58",
"72",
"69",
"69",
"65",
"77",
"60",
"47",
"67",
"68",
"74",
"76",
"63",
"76",
"66",
"77",
"74",
"83",
"77",
"84",
"90",
"83",
"93",
"96",
"87",
"91",
"71",
"71",
"85",
"92",
"75",
"68",
"64",
"75",
"60",
"77",
"59",
"56",
"81",
"79",
"67",
"76",
"75",
"59",
"56",
"67",
"68",
"86",
"72",
"63",
"64",
"61",
"86",
"67",
"65",
"49",
"61",
"71",
"66",
"53",
"74",
"84",
"75",
"68",
"75",
"73",
"68",
"97",
"75",
"76",
"60",
"88",
"52",
"86",
"79",
"88",
"78",
"81",
"67",
"96",
"85",
"98",
"91",
"110",
"110",
"118",
"103",
"119",
"106",
"154",
"108",
"147",
"161",
"203",
"216",
"326",
"540",
"861",
"1385",
"2151",
"3386",
"5215",
"7393",
"10286",
"13173",
"16928",
"19353",
"21905",
"22678",
"24103",
"22038",
"20527",
"17793",
"15043",
"11696",
"9059",
"6215",
"4391",
"2778",
"1813",
"1013",
"645",
"391",
"241",
"170",
"146",
"119",
"76",
"89",
"90",
"86",
"92",
"90",
"77",
"83",
"98",
"81",
"86",
"89",
"85",
"81",
"91",
"87",
"90",
"91",
"109",
"77",
"93",
"104",
"99",
"91",
"90",
"106",
"123",
"113",
"135",
"135",
"136",
"154",
"164",
"182",
"260",
"345",
"498",
"679",
"910",
"1215",
"1692",
"2028",
"2424",
"2847",
"3261",
"3347",
"3554",
"3196",
"3226",
"2767",
"2557",
"2005",
"1620",
"1299",
"1049",
"706",
"601",
"409",
"309",
"231",
"176",
"131",
"112",
"91",
"66",
"72",
"55",
"54",
"52",
"54",
"68",
"65",
"64",
"48",
"43",
"48",
"56",
"41",
"52",
"42",
"39",
"59",
"60",
"48",
"54",
"42",
"62",
"58",
"53",
"42",
"47",
"28",
"62",
"47",
"51",
"56",
"55",
"45",
"42",
"51",
"46",
"54",
"46",
"42",
"47",
"42",
"45",
"52",
"55",
"51",
"50",
"42",
"48",
"41",
"60",
"51",
"45",
"42",
"41",
"40",
"45",
"33",
"59",
"56",
"54",
"46",
"52",
"36",
"49",
"53",
"60",
"31",
"43",
"40",
"54",
"39",
"51",
"50",
"45",
"51",
"42",
"53",
"53",
"38",
"53",
"40",
"42",
"47",
"45",
"49",
"42",
"45",
"41",
"53",
"49",
"75",
"48",
"43",
"41",
"42",
"41",
"39",
"52",
"42",
"42",
"36",
"31",
"48",
"49",
"36",
"45",
"39",
"54",
"39",
"27",
"53",
"26",
"46",
"33",
"38",
"58",
"36",
"33",
"35",
"37",
"48",
"37",
"52",
"42",
"39",
"41",
"40",
"39",
"40",
"42",
"33",
"36",
"48",
"43",
"29",
"37",
"38",
"39",
"37",
"45",
"46",
"53",
"49",
"39",
"43",
"37",
"37",
"35",
"39",
"40",
"38",
"29",
"39",
"37",
"42",
"39",
"46",
"40",
"45",
"26",
"51",
"37",
"24",
"41",
"37",
"42",
"40",
"33",
"40",
"34",
"37",
"31",
"41",
"31",
"38",
"40",
"47",
"46",
"31",
"29",
"41",
"36",
"38",
"45",
"37",
"35",
"37",
"27",
"47",
"49",
"24",
"37",
"43",
"38",
"42",
"59",
"38",
"35",
"31",
"36",
"39",
"33",
"48",
"41",
"43",
"43",
"38",
"31",
"29",
"41",
"38",
"41",
"40",
"33",
"41",
"39",
"34",
"43",
"40",
"23",
"46",
"31",
"38",
"41",
"36",
"37",
"49",
"36",
"38",
"33",
"40",
"23",
"36",
"38",
"33",
"39",
"39",
"31",
"37",
"40",
"40",
"41",
"37",
"36",
"38",
"43",
"24",
"42",
"40",
"42",
"51",
"39",
"43",
"31",
"42",
"35",
"43",
"40",
"48",
"40",
"33",
"43",
"24",
"41",
"35",
"47",
"46",
"49",
"43",
"48",
"63",
"39",
"35",
"58",
"48",
"35",
"37",
"45",
"41",
"47",
"38",
"55",
"51",
"60",
"61",
"59",
"62",
"69",
"59",
"64",
"59",
"60",
"68",
"79",
"78",
"92",
"93",
"96",
"115",
"127",
"129",
"142",
"137",
"153",
"186",
"190",
"201",
"200",
"190",
"219",
"220",
"257",
"232",
"279",
"225",
"240",
"255",
"268",
"240",
"270",
"220",
"220",
"223",
"182",
"191",
"204",
"156",
"152",
"141",
"148",
"144",
"135",
"132",
"104",
"105",
"103",
"74",
"83",
"60",
"74",
"69",
"62",
"63",
"65",
"51",
"55",
"64",
"42",
"56",
"90",
"69",
"73",
"91",
"108",
"102",
"99",
"109",
"114",
"129",
"127",
"141",
"138",
"123",
"151",
"115",
"113",
"108",
"105",
"71",
"72",
"65",
"62",
"51",
"46",
"52",
"36",
"30",
"28",
"29",
"28",
"28",
"19401",
"Channel_info_start",
"Channel : Mg",
"Points : 0",
"Range : 0.000000 - 0.000000",
"Step : 0.010000",
"Channel_info_end",
"Channel_info_start",
"Channel : Al",
"Points : 0",
"Range : 0.000000 - 0.000000",
"Step : 0.010000",
"Channel_info_end",
"Channel_info_start",
"Channel : Si",
"Points : 0",
"Range : 0.000000 - 0.000000",
"Step : 0.010000",
"Channel_info_end",
"Channel_info_start",
"Channel : P ",
"Points : 0",
"Range : 0.000000 - 0.000000",
"Step : 0.010000",
"Channel_info_end",
"Channel_info_start",
"Channel : S ",
"Points : 0",
"Range : 0.000000 - 0.000000",
"Step : 0.010000",
"Channel_info_end",
"Channel_info_start",
"Channel : Cl",
"Points : 0",
"Range : 0.000000 - 0.000000",
"Step : 0.010000",
"Channel_info_end",
"Channel_info_start",
"Channel : K ",
"Points : 0",
"Range : 0.000000 - 0.000000",
"Step : 0.010000",
"Channel_info_end",
"Channel_info_start",
"Channel : Ca",
"Points : 0",
"Range : 0.000000 - 0.000000",
"Step : 0.010000",
"Channel_info_end",
"Channel_info_start",
"Channel : Ti",
"Points : 0",
"Range : 0.000000 - 0.000000",
"Step : 0.010000",
"Channel_info_end",
"Channel_info_start",
"Channel : V ",
"Points : 0",
"Range : 0.000000 - 0.000000",
"Step : 0.010000",
"Channel_info_end",
"Channel_info_start",
"Channel : Cr",
"Points : 0",
"Range : 0.000000 - 0.000000",
"Step : 0.010000",
"Channel_info_end",
"Channel_info_start",
"Channel : Mn",
"Points : 0",
"Range : 0.000000 - 0.000000",
"Step : 0.010000",
"Channel_info_end",
"Channel_info_start",
"Channel : Fe",
"Points : 0",
"Range : 0.000000 - 0.000000",
"Step : 0.010000",
"Channel_info_end",
"Channel_info_start",
"Channel : Cu",
"Points : 0",
"Range : 0.000000 - 0.000000",
"Step : 0.010000",
"Channel_info_end",
"Channel_info_start",
"Channel : Zn",
"Points : 0",
"Range : 0.000000 - 0.000000",
"Step : 0.010000",
"Channel_info_end",
"Channel_info_start",
"Channel : Sr",
"Points : 0",
"Range : 0.000000 - 0.000000",
"Step : 0.010000",
"Channel_info_end",
"Channel_info_start",
"Channel : Pb",
"Points : 0",
"Range : 0.000000 - 0.000000",
"Step : 0.010000",
"Channel_info_end",
"",
"Qualitative Result",
"--------------------------------------------------------------------------------",
"Element :  Se, P , Ca, Ru",
"",
"Peak List",
"--------------------------------------------------------------------------------",
"Channel               Line        keV     Net Int.(cps/uA)",
"--------------------------------------------------------------------------------",
"Na                    ----         1.19     0.019",
"                      SeLa         1.40     0.507",
"                      P Ka         2.01     0.012",
"                      CaKa         3.68     0.178",
"                      CaKb         4.00     0.023",
"                      SeKa        11.20    15.112",
"                      SeKb        12.48     2.239",
"                      RuKa        19.23     0.133",
"                      ----        19.47     0.048",
"                      ----        20.02     0.062",
"--------------------------------------------------------------------------------",
"",
"Quantitative Result",
"--------------------------------------------------------------------------------",
"Analyte               Result             Std.Dev. Proc.-Calc. Line Intensity(cps/uA)",
"--------------------------------------------------------------------------------",
"====[No. 1 Layer]====< Layer1               >===============================",
"Layer1                   0.000 ug/cm2    -------- Flux       -------- --------",