File: inputs/edxCalibration/edx_raw/2010-06/SeF2 15754.20100610235218.csv
"Sample    : SeF2 15754",
"Operator  : thiago",
"Comment  : cubatao-g-policarbonato",
"Group     : kerr2007ag180cal_lt",
"Date       : 2010-06-10 23:48:03",
"",
"Mesurement Condition",
"------------------------------------------------------------------------------------",
"Instrument : 700HS2   Atmosphere : Vac.   Collimator : 10(mm)   Spin : No",
"------------------------------------------------------------------------------------",
"Analyte               TG kV   uA      FI Acq.(keV)  Anal.(keV)  Time(sec)     DT(%)",
"------------------------------------------------------------------------------------",
"Na                    Rh 50  596-Auto Al  0 - 20    0.8 - 1.2   Live -  180   16",
"",
"<Profile>",
"Channel_info_start",
"Channel : Na",
"Points : 2048",
"Range : 0.000000 - 20.48",
"Step : 0.010000",
"Channel_info_end",
"0",
"0",
"0",
"0",
"0",
"0",
"0",
"0",
"0",
"0",
"0",
"0",
"0",
"0",
"0",
"10",
"32",
"33",
"25",
"25",
"26",
"33",
"22",
"34",
"25",
"21",
"38",
"32",
"39",
"24",
"28",
"27",
"33",
"33",
"36",
"28",
"31",
"18",
"26",
"26",
"24",
"24",
"24",
"24",
"32",
"27",
"25",
"22",
"26",
"34",
"30",
"22",
"32",
"19",
"25",
"31",
"33",
"27",
"27",
"34",
"20",
"42",
"25",
"27",
"26",
"23",
"23",
"19",
"33",
"30",
"22",
"20",
"30",
"35",
"30",
"48",
"42",
"26",
"38",
"28",
"22",
"42",
"32",
"43",
"49",
"47",
"46",
"46",
"71",
"66",
"56",
"41",
"43",
"44",
"43",
"51",
"64",
"90",
"101",
"117",
"148",
"128",
"131",
"101",
"84",
"48",
"48",
"41",
"44",
"64",
"47",
"46",
"71",
"97",
"157",
"186",
"234",
"277",
"218",
"207",
"147",
"91",
"57",
"51",
"46",
"32",
"37",
"37",
"36",
"35",
"48",
"50",
"62",
"61",
"62",
"62",
"92",
"70",
"58",
"54",
"55",
"49",
"54",
"45",
"54",
"44",
"48",
"50",
"32",
"48",
"37",
"39",
"34",
"39",
"42",
"41",
"47",
"51",
"60",
"57",
"76",
"73",
"90",
"90",
"103",
"113",
"114",
"123",
"113",
"123",
"99",
"107",
"113",
"112",
"115",
"145",
"185",
"199",
"304",
"403",
"580",
"757",
"1023",
"1295",
"1499",
"1335",
"1328",
"1038",
"815",
"505",
"413",
"296",
"308",
"280",
"336",
"419",
"691",
"1199",
"2346",
"4505",
"8009",
"12727",
"18213",
"22596",
"25730",
"24681",
"22227",
"17083",
"11887",
"7000",
"3935",
"1865",
"914",
"439",
"297",
"307",
"430",
"594",
"1005",
"1509",
"2116",
"2859",
"3361",
"3416",
"3291",
"2552",
"2106",
"1408",
"919",
"508",
"327",
"196",
"168",
"113",
"113",
"114",
"104",
"101",
"94",
"99",
"79",
"95",
"97",
"90",
"80",
"71",
"80",
"72",
"81",
"69",
"79",
"83",
"99",
"66",
"84",
"74",
"65",
"71",
"73",
"99",
"72",
"83",
"79",
"81",
"89",
"89",
"104",
"90",
"99",
"130",
"114",
"105",
"117",
"101",
"114",
"113",
"126",
"124",
"114",
"107",
"114",
"103",
"103",
"128",
"126",
"145",
"102",
"107",
"147",
"117",
"111",
"126",
"140",
"128",
"127",
"137",
"146",
"116",
"123",
"117",
"156",
"138",
"140",
"152",
"145",
"148",
"151",
"118",
"135",
"162",
"185",
"140",
"151",
"152",
"183",
"160",
"196",
"194",
"205",
"204",
"198",
"184",
"189",
"192",
"161",
"152",
"185",
"205",
"189",
"164",
"172",
"169",
"185",
"191",
"194",
"175",
"203",
"177",
"186",
"195",
"172",
"185",
"200",
"163",
"169",
"192",
"181",
"203",
"186",
"210",
"204",
"209",
"201",
"193",
"165",
"173",
"201",
"183",
"163",
"176",
"193",
"176",
"187",
"177",
"197",
"191",
"181",
"170",
"194",
"208",
"185",
"194",
"211",
"188",
"195",
"201",
"164",
"196",
"150",
"188",
"184",
"180",
"183",
"188",
"211",
"192",
"192",
"201",
"195",
"185",
"232",
"220",
"231",
"237",
"216",
"219",
"253",
"214",
"257",
"235",
"269",
"258",
"302",
"292",
"307",
"275",
"287",
"292",
"285",
"258",
"302",
"252",
"237",
"235",
"251",
"242",
"203",
"214",
"222",
"204",
"174",
"199",
"195",
"189",
"209",
"231",
"245",
"284",
"293",
"307",
"311",
"308",
"332",
"307",
"324",
"291",
"266",
"258",
"232",
"216",
"238",
"240",
"198",
"218",
"216",
"185",
"205",
"233",
"231",
"214",
"200",
"233",
"162",
"200",
"212",
"185",
"215",
"201",
"242",
"193",
"201",
"206",
"220",
"217",
"230",
"219",
"260",
"240",
"222",
"224",
"205",
"239",
"216",
"205",
"224",
"215",
"234",
"187",
"211",
"205",
"212",
"198",
"215",
"217",
"204",
"203",
"173",
"205",
"189",
"226",
"180",
"201",
"207",
"217",
"181",
"188",
"207",
"206",
"209",
"184",
"215",
"185",
"198",
"185",
"196",
"206",
"175",
"203",
"180",
"187",
"215",
"188",
"196",
"208",
"178",
"204",
"206",
"192",
"192",
"214",
"185",
"206",
"168",
"184",
"200",
"193",
"182",
"192",
"195",
"183",
"218",
"162",
"203",
"198",
"194",
"195",
"201",
"193",
"194",
"187",
"205",
"203",
"221",
"166",
"208",
"201",
"181",
"172",
"191",
"163",
"201",
"194",
"175",
"159",
"186",
"166",
"207",
"178",
"201",
"199",
"204",
"186",
"197",
"168",
"199",
"210",
"187",
"143",
"230",
"192",
"158",
"186",
"191",
"201",
"176",
"189",
"180",
"205",
"211",
"200",
"204",
"174",
"185",
"189",
"210",
"187",
"193",
"178",
"195",
"201",
"194",
"191",
"175",
"160",
"180",
"215",
"174",
"183",
"185",
"165",
"174",
"183",
"174",
"183",
"192",
"175",
"197",
"169",
"172",
"169",
"199",
"175",
"177",
"188",
"171",
"161",
"156",
"147",
"164",
"166",
"200",
"160",
"180",
"166",
"172",
"153",
"200",
"164",
"161",
"181",
"180",
"180",
"191",
"175",
"165",
"141",
"166",
"147",
"159",
"178",
"172",
"159",
"153",
"172",
"188",
"162",
"203",
"163",
"162",
"181",
"171",
"170",
"157",
"180",
"130",
"177",
"161",
"168",
"193",
"176",
"188",
"168",
"181",
"177",
"172",
"169",
"170",
"160",
"160",
"158",
"189",
"159",
"150",
"180",
"160",
"142",
"146",
"166",
"156",
"163",
"153",
"127",
"187",
"147",
"181",
"164",
"184",
"150",
"166",
"161",
"145",
"163",
"143",
"168",
"147",
"162",
"125",
"157",
"137",
"161",
"154",
"165",
"160",
"168",
"180",
"147",
"161",
"138",
"159",
"139",
"180",
"157",
"149",
"173",
"136",
"154",
"170",
"147",
"161",
"130",
"130",
"164",
"146",
"153",
"172",
"141",
"151",
"146",
"150",
"147",
"148",
"157",
"154",
"124",
"149",
"128",
"148",
"152",
"163",
"150",
"140",
"125",
"129",
"142",
"137",
"162",
"139",
"141",
"156",
"141",
"130",
"134",
"157",
"135",
"124",
"133",
"158",
"143",
"148",
"143",
"156",
"115",
"131",
"165",
"150",
"148",
"148",
"135",
"137",
"116",
"134",
"131",
"130",
"148",
"146",
"142",
"127",
"158",
"147",
"136",
"125",
"119",
"138",
"119",
"150",
"136",
"141",
"143",
"124",
"118",
"131",
"136",
"138",
"102",
"151",
"125",
"128",
"120",
"154",
"135",
"154",
"134",
"103",
"120",
"143",
"140",
"127",
"122",
"131",
"127",
"131",
"143",
"130",
"127",
"142",
"113",
"151",
"123",
"130",
"129",
"137",
"108",
"111",
"127",
"123",
"140",
"119",
"107",
"123",
"119",
"130",
"113",
"133",
"140",
"113",
"123",
"140",
"116",
"110",
"102",
"127",
"125",
"116",
"101",
"137",
"127",
"113",
"103",
"123",
"114",
"117",
"125",
"135",
"126",
"141",
"133",
"126",
"139",
"97",
"128",
"130",
"108",
"120",
"133",
"151",
"145",
"130",
"108",
"119",
"143",
"115",
"125",
"111",
"122",
"122",
"135",
"126",
"108",
"116",
"117",
"130",
"100",
"125",
"134",
"120",
"116",
"134",
"115",
"150",
"122",
"135",
"116",
"117",
"147",
"124",
"125",
"118",
"105",
"122",
"102",
"147",
"117",
"116",
"140",
"149",
"129",
"156",
"135",
"146",
"130",
"128",
"140",
"147",
"161",
"181",
"143",
"165",
"133",
"198",
"177",
"149",
"146",
"180",
"177",
"180",
"161",
"215",
"185",
"201",
"208",
"185",
"206",
"233",
"231",
"234",
"233",
"255",
"330",
"327",
"292",
"372",
"338",
"438",
"408",
"518",
"517",
"586",
"588",
"687",
"652",
"682",
"725",
"842",
"795",
"834",
"793",
"894",
"822",
"834",
"820",
"966",
"834",
"903",
"874",
"797",
"784",
"781",
"702",
"630",
"636",
"615",
"576",
"511",
"515",
"464",
"417",
"422",
"371",
"344",
"324",
"311",
"266",
"274",
"245",
"233",
"228",
"200",
"191",
"191",
"170",
"191",
"215",
"223",
"189",
"246",
"237",
"264",
"274",
"326",
"311",
"353",
"394",
"356",
"383",
"387",
"364",
"360",
"315",
"370",
"264",
"270",
"245",
"226",
"174",
"180",
"156",
"154",
"111",
"114",
"114",
"123",
"130",
"102",
"127",
"59954",
"Channel_info_start",
"Channel : Mg",
"Points : 0",
"Range : 0.000000 - 0.000000",
"Step : 0.010000",
"Channel_info_end",
"Channel_info_start",
"Channel : Al",
"Points : 0",
"Range : 0.000000 - 0.000000",
"Step : 0.010000",
"Channel_info_end",
"Channel_info_start",
"Channel : Si",
"Points : 0",
"Range : 0.000000 - 0.000000",
"Step : 0.010000",
"Channel_info_end",
"Channel_info_start",
"Channel : P ",
"Points : 0",
"Range : 0.000000 - 0.000000",
"Step : 0.010000",
"Channel_info_end",
"Channel_info_start",
"Channel : S ",
"Points : 0",
"Range : 0.000000 - 0.000000",
"Step : 0.010000",
"Channel_info_end",
"Channel_info_start",
"Channel : Cl",
"Points : 0",
"Range : 0.000000 - 0.000000",
"Step : 0.010000",
"Channel_info_end",
"Channel_info_start",
"Channel : K ",
"Points : 0",
"Range : 0.000000 - 0.000000",
"Step : 0.010000",
"Channel_info_end",
"Channel_info_start",
"Channel : Ca",
"Points : 0",
"Range : 0.000000 - 0.000000",
"Step : 0.010000",
"Channel_info_end",
"Channel_info_start",
"Channel : Ti",
"Points : 0",
"Range : 0.000000 - 0.000000",
"Step : 0.010000",
"Channel_info_end",
"Channel_info_start",
"Channel : V ",
"Points : 0",
"Range : 0.000000 - 0.000000",
"Step : 0.010000",
"Channel_info_end",
"Channel_info_start",
"Channel : Cr",
"Points : 0",
"Range : 0.000000 - 0.000000",
"Step : 0.010000",
"Channel_info_end",
"Channel_info_start",
"Channel : Mn",
"Points : 0",
"Range : 0.000000 - 0.000000",
"Step : 0.010000",
"Channel_info_end",
"Channel_info_start",
"Channel : Fe",
"Points : 0",
"Range : 0.000000 - 0.000000",
"Step : 0.010000",
"Channel_info_end",
"Channel_info_start",
"Channel : Cu",
"Points : 0",
"Range : 0.000000 - 0.000000",
"Step : 0.010000",
"Channel_info_end",
"Channel_info_start",
"Channel : Zn",
"Points : 0",
"Range : 0.000000 - 0.000000",
"Step : 0.010000",
"Channel_info_end",
"Channel_info_start",
"Channel : Sr",
"Points : 0",
"Range : 0.000000 - 0.000000",
"Step : 0.010000",
"Channel_info_end",
"Channel_info_start",
"Channel : Pb",
"Points : 0",
"Range : 0.000000 - 0.000000",
"Step : 0.010000",
"Channel_info_end",
"",
"Qualitative Result",
"--------------------------------------------------------------------------------",
"Element :  P , Sc, Ca, Zn",
"",
"Peak List",
"--------------------------------------------------------------------------------",
"Channel               Line        keV     Net Int.(cps/uA)",
"--------------------------------------------------------------------------------",
"Na                    P Ka         2.00     0.013",
"                      ScKaESC      2.34     0.029",
"                      CaKa         3.68     0.173",
"                      CaKb         4.01     0.024",
"                      ScKa         4.08     3.433",
"                      ScKb         4.46     0.442",
"                      ZnKa         8.64     0.020",
"                      ----        19.12     0.133",
"                      ----        19.52     0.033",
"                      ----        20.03     0.052",
"--------------------------------------------------------------------------------",
"",
"Quantitative Result",
"--------------------------------------------------------------------------------",
"Analyte               Result             Std.Dev. Proc.-Calc. Line Intensity(cps/uA)",
"--------------------------------------------------------------------------------",
"====[No. 1 Layer]====< Layer1               >===============================",
"Layer1                   0.000 ug/cm2    -------- Flux       -------- --------",