File: inputs/edxCalibration/edx_raw/2010-06/SeF3 15754.20100525210408.csv
"Sample    : SeF3 15754",
"Operator  : luisf",
"Comment  : cubatao-g-policarbonato",
"Group     : kerr2007ag180cal_lt",
"Date       : 2010-05-25 20:59:56",
"",
"Mesurement Condition",
"------------------------------------------------------------------------------------",
"Instrument : 700HS2   Atmosphere : Vac.   Collimator : 10(mm)   Spin : No",
"------------------------------------------------------------------------------------",
"Analyte               TG kV   uA      FI Acq.(keV)  Anal.(keV)  Time(sec)     DT(%)",
"------------------------------------------------------------------------------------",
"Na                    Rh 50  548-Auto Al  0 - 20    0.8 - 1.2   Live -  180   15",
"",
"<Profile>",
"Channel_info_start",
"Channel : Na",
"Points : 2048",
"Range : 0.000000 - 20.48",
"Step : 0.010000",
"Channel_info_end",
"0",
"0",
"0",
"0",
"0",
"0",
"0",
"0",
"0",
"0",
"0",
"0",
"0",
"0",
"2",
"15",
"20",
"32",
"23",
"32",
"29",
"27",
"19",
"23",
"26",
"37",
"27",
"30",
"28",
"29",
"22",
"30",
"28",
"30",
"32",
"32",
"30",
"33",
"32",
"22",
"24",
"21",
"32",
"19",
"30",
"25",
"22",
"32",
"34",
"32",
"33",
"24",
"26",
"29",
"37",
"27",
"24",
"37",
"26",
"27",
"23",
"14",
"17",
"26",
"30",
"35",
"24",
"29",
"28",
"28",
"29",
"21",
"37",
"33",
"34",
"29",
"33",
"32",
"22",
"22",
"34",
"42",
"35",
"32",
"39",
"59",
"46",
"47",
"58",
"60",
"42",
"35",
"44",
"34",
"48",
"41",
"71",
"95",
"101",
"126",
"136",
"120",
"109",
"88",
"71",
"60",
"40",
"53",
"46",
"47",
"48",
"46",
"64",
"100",
"142",
"188",
"260",
"249",
"254",
"189",
"148",
"96",
"69",
"46",
"41",
"37",
"20",
"29",
"34",
"45",
"42",
"38",
"51",
"60",
"56",
"73",
"60",
"48",
"51",
"50",
"32",
"42",
"49",
"48",
"41",
"42",
"41",
"42",
"32",
"36",
"37",
"42",
"38",
"52",
"34",
"51",
"50",
"29",
"60",
"62",
"66",
"84",
"74",
"109",
"102",
"133",
"130",
"113",
"117",
"123",
"121",
"91",
"119",
"133",
"124",
"139",
"189",
"183",
"262",
"357",
"542",
"740",
"979",
"1249",
"1350",
"1361",
"1194",
"988",
"764",
"522",
"392",
"292",
"282",
"280",
"293",
"429",
"628",
"1118",
"2181",
"4209",
"7432",
"11877",
"16821",
"21036",
"24025",
"23428",
"21022",
"15852",
"11526",
"6766",
"3739",
"1829",
"844",
"440",
"281",
"285",
"380",
"538",
"929",
"1374",
"1964",
"2570",
"3076",
"3153",
"3113",
"2576",
"1944",
"1319",
"868",
"508",
"344",
"193",
"162",
"99",
"90",
"102",
"106",
"76",
"69",
"90",
"79",
"90",
"76",
"66",
"81",
"75",
"75",
"79",
"77",
"62",
"72",
"73",
"70",
"66",
"75",
"79",
"72",
"76",
"79",
"77",
"71",
"76",
"85",
"88",
"62",
"79",
"95",
"96",
"94",
"78",
"107",
"89",
"105",
"85",
"97",
"90",
"105",
"96",
"99",
"96",
"119",
"110",
"102",
"119",
"105",
"112",
"107",
"112",
"122",
"120",
"149",
"123",
"125",
"119",
"109",
"142",
"135",
"124",
"134",
"139",
"147",
"133",
"135",
"123",
"159",
"133",
"131",
"120",
"151",
"143",
"149",
"135",
"133",
"144",
"147",
"161",
"157",
"170",
"156",
"204",
"177",
"152",
"210",
"164",
"182",
"162",
"161",
"175",
"181",
"163",
"174",
"152",
"176",
"169",
"160",
"167",
"187",
"198",
"192",
"152",
"175",
"188",
"184",
"210",
"191",
"197",
"197",
"196",
"205",
"183",
"179",
"182",
"173",
"187",
"208",
"188",
"181",
"158",
"186",
"176",
"163",
"160",
"160",
"208",
"173",
"170",
"169",
"172",
"163",
"175",
"164",
"184",
"172",
"147",
"196",
"145",
"168",
"173",
"170",
"156",
"186",
"172",
"177",
"194",
"183",
"170",
"170",
"208",
"198",
"192",
"208",
"179",
"200",
"187",
"223",
"229",
"218",
"200",
"225",
"261",
"271",
"266",
"277",
"267",
"263",
"279",
"290",
"246",
"235",
"242",
"271",
"224",
"201",
"197",
"224",
"197",
"169",
"187",
"191",
"205",
"188",
"173",
"198",
"216",
"225",
"193",
"278",
"250",
"290",
"257",
"297",
"282",
"296",
"237",
"292",
"231",
"246",
"226",
"230",
"218",
"210",
"217",
"217",
"203",
"208",
"194",
"208",
"207",
"199",
"193",
"181",
"188",
"188",
"225",
"194",
"181",
"142",
"188",
"189",
"214",
"214",
"189",
"198",
"184",
"199",
"200",
"198",
"177",
"240",
"194",
"197",
"195",
"208",
"196",
"241",
"213",
"212",
"206",
"209",
"231",
"177",
"216",
"195",
"209",
"204",
"197",
"187",
"186",
"180",
"196",
"199",
"193",
"183",
"198",
"180",
"189",
"201",
"181",
"165",
"184",
"167",
"182",
"187",
"171",
"161",
"185",
"155",
"180",
"208",
"194",
"171",
"167",
"197",
"156",
"161",
"177",
"150",
"185",
"183",
"179",
"171",
"186",
"175",
"173",
"200",
"183",
"188",
"189",
"200",
"185",
"171",
"186",
"172",
"177",
"172",
"168",
"163",
"179",
"204",
"192",
"180",
"171",
"221",
"171",
"162",
"179",
"172",
"155",
"200",
"160",
"162",
"177",
"160",
"193",
"198",
"171",
"162",
"176",
"182",
"203",
"170",
"191",
"165",
"161",
"193",
"169",
"176",
"158",
"152",
"174",
"169",
"164",
"198",
"195",
"192",
"205",
"172",
"193",
"154",
"170",
"181",
"186",
"168",
"164",
"176",
"162",
"161",
"162",
"161",
"173",
"195",
"167",
"164",
"179",
"182",
"162",
"175",
"163",
"188",
"162",
"180",
"177",
"167",
"181",
"152",
"168",
"184",
"158",
"179",
"150",
"162",
"182",
"182",
"188",
"174",
"172",
"183",
"134",
"171",
"156",
"194",
"186",
"159",
"135",
"168",
"139",
"157",
"168",
"174",
"135",
"157",
"175",
"162",
"138",
"165",
"156",
"163",
"162",
"160",
"174",
"147",
"154",
"146",
"146",
"140",
"162",
"132",
"180",
"144",
"174",
"147",
"168",
"159",
"155",
"159",
"140",
"149",
"157",
"138",
"149",
"169",
"155",
"142",
"165",
"152",
"164",
"155",
"160",
"156",
"150",
"162",
"152",
"155",
"143",
"155",
"154",
"137",
"145",
"151",
"133",
"132",
"155",
"139",
"135",
"156",
"143",
"155",
"167",
"174",
"134",
"156",
"131",
"138",
"124",
"162",
"145",
"152",
"150",
"137",
"139",
"150",
"120",
"138",
"151",
"137",
"142",
"147",
"159",
"159",
"125",
"133",
"140",
"136",
"130",
"162",
"127",
"149",
"115",
"154",
"143",
"139",
"148",
"107",
"128",
"132",
"131",
"142",
"131",
"134",
"138",
"127",
"128",
"133",
"139",
"146",
"132",
"171",
"136",
"140",
"133",
"126",
"119",
"149",
"109",
"156",
"130",
"130",
"143",
"135",
"124",
"133",
"122",
"133",
"133",
"108",
"136",
"134",
"146",
"147",
"125",
"120",
"135",
"137",
"127",
"130",
"119",
"98",
"107",
"119",
"142",
"123",
"109",
"118",
"123",
"146",
"121",
"135",
"142",
"148",
"121",
"130",
"111",
"127",
"133",
"119",
"123",
"137",
"136",
"139",
"96",
"123",
"128",
"119",
"128",
"118",
"149",
"135",
"123",
"123",
"108",
"127",
"111",
"113",
"124",
"128",
"122",
"140",
"125",
"147",
"126",
"128",
"110",
"124",
"120",
"110",
"121",
"132",
"110",
"113",
"111",
"113",
"105",
"133",
"130",
"100",
"114",
"117",
"109",
"122",
"143",
"128",
"114",
"118",
"105",
"110",
"111",
"125",
"95",
"108",
"111",
"123",
"106",
"117",
"112",
"109",
"99",
"115",
"111",
"119",
"95",
"120",
"140",
"97",
"115",
"97",
"99",
"115",
"118",
"124",
"117",
"102",
"113",
"124",
"120",
"115",
"113",
"107",
"117",
"128",
"103",
"111",
"131",
"109",
"122",
"113",
"97",
"137",
"126",
"103",
"100",
"128",
"110",
"117",
"111",
"117",
"115",
"118",
"107",
"138",
"113",
"106",
"98",
"120",
"93",
"123",
"115",
"112",
"113",
"105",
"120",
"135",
"111",
"128",
"115",
"139",
"122",
"107",
"128",
"130",
"136",
"150",
"109",
"155",
"137",
"146",
"122",
"136",
"140",
"154",
"145",
"142",
"162",
"151",
"150",
"184",
"144",
"164",
"179",
"216",
"186",
"191",
"179",
"200",
"220",
"211",
"280",
"253",
"282",
"311",
"316",
"346",
"348",
"368",
"390",
"478",
"480",
"503",
"530",
"581",
"606",
"657",
"636",
"745",
"738",
"776",
"692",
"792",
"786",
"845",
"851",
"918",
"799",
"875",
"796",
"822",
"728",
"719",
"657",
"676",
"620",
"539",
"544",
"505",
"468",
"427",
"396",
"360",
"335",
"311",
"282",
"274",
"268",
"214",
"216",
"203",
"211",
"180",
"176",
"192",
"174",
"181",
"183",
"191",
"196",
"218",
"216",
"262",
"262",
"312",
"302",
"308",
"286",
"321",
"331",
"340",
"358",
"332",
"335",
"308",
"252",
"237",
"225",
"221",
"172",
"181",
"125",
"163",
"113",
"115",
"105",
"114",
"94",
"119",
"88",
"56652",
"Channel_info_start",
"Channel : Mg",
"Points : 0",
"Range : 0.000000 - 0.000000",
"Step : 0.010000",
"Channel_info_end",
"Channel_info_start",
"Channel : Al",
"Points : 0",
"Range : 0.000000 - 0.000000",
"Step : 0.010000",
"Channel_info_end",
"Channel_info_start",
"Channel : Si",
"Points : 0",
"Range : 0.000000 - 0.000000",
"Step : 0.010000",
"Channel_info_end",
"Channel_info_start",
"Channel : P ",
"Points : 0",
"Range : 0.000000 - 0.000000",
"Step : 0.010000",
"Channel_info_end",
"Channel_info_start",
"Channel : S ",
"Points : 0",
"Range : 0.000000 - 0.000000",
"Step : 0.010000",
"Channel_info_end",
"Channel_info_start",
"Channel : Cl",
"Points : 0",
"Range : 0.000000 - 0.000000",
"Step : 0.010000",
"Channel_info_end",
"Channel_info_start",
"Channel : K ",
"Points : 0",
"Range : 0.000000 - 0.000000",
"Step : 0.010000",
"Channel_info_end",
"Channel_info_start",
"Channel : Ca",
"Points : 0",
"Range : 0.000000 - 0.000000",
"Step : 0.010000",
"Channel_info_end",
"Channel_info_start",
"Channel : Ti",
"Points : 0",
"Range : 0.000000 - 0.000000",
"Step : 0.010000",
"Channel_info_end",
"Channel_info_start",
"Channel : V ",
"Points : 0",
"Range : 0.000000 - 0.000000",
"Step : 0.010000",
"Channel_info_end",
"Channel_info_start",
"Channel : Cr",
"Points : 0",
"Range : 0.000000 - 0.000000",
"Step : 0.010000",
"Channel_info_end",
"Channel_info_start",
"Channel : Mn",
"Points : 0",
"Range : 0.000000 - 0.000000",
"Step : 0.010000",
"Channel_info_end",
"Channel_info_start",
"Channel : Fe",
"Points : 0",
"Range : 0.000000 - 0.000000",
"Step : 0.010000",
"Channel_info_end",
"Channel_info_start",
"Channel : Cu",
"Points : 0",
"Range : 0.000000 - 0.000000",
"Step : 0.010000",
"Channel_info_end",
"Channel_info_start",
"Channel : Zn",
"Points : 0",
"Range : 0.000000 - 0.000000",
"Step : 0.010000",
"Channel_info_end",
"Channel_info_start",
"Channel : Sr",
"Points : 0",
"Range : 0.000000 - 0.000000",
"Step : 0.010000",
"Channel_info_end",
"Channel_info_start",
"Channel : Pb",
"Points : 0",
"Range : 0.000000 - 0.000000",
"Step : 0.010000",
"Channel_info_end",
"",
"Qualitative Result",
"--------------------------------------------------------------------------------",
"Element :  P , Sc, Ca, Ru",
"",
"Peak List",
"--------------------------------------------------------------------------------",
"Channel               Line        keV     Net Int.(cps/uA)",
"--------------------------------------------------------------------------------",
"Na                    P Ka         2.00     0.013",
"                      ScKaESC      2.32     0.028",
"                      CaKa         3.68     0.173",
"                      CaKb         4.01     0.024",
"                      ScKa         4.09     3.497",
"                      ScKb         4.46     0.450",
"                      ----         8.06     0.019",
"                      RuKa        19.16     0.137",
"                      ----        19.46     0.057",
"--------------------------------------------------------------------------------",
"",
"Quantitative Result",
"--------------------------------------------------------------------------------",
"Analyte               Result             Std.Dev. Proc.-Calc. Line Intensity(cps/uA)",
"--------------------------------------------------------------------------------",
"====[No. 1 Layer]====< Layer1               >===============================",
"Layer1                   0.000 ug/cm2    -------- Flux       -------- --------",