File: inputs/edxCalibration/edx_raw/2010-06/SiO 15752.20100611002720.csv
"Sample    : SiO 15752",
"Operator  : thiago",
"Comment  : cubatao-g-policarbonato",
"Group     : kerr2007ag180cal_lt",
"Date       : 2010-06-11 00:23:10",
"",
"Mesurement Condition",
"------------------------------------------------------------------------------------",
"Instrument : 700HS2   Atmosphere : Vac.   Collimator : 10(mm)   Spin : No",
"------------------------------------------------------------------------------------",
"Analyte               TG kV   uA      FI Acq.(keV)  Anal.(keV)  Time(sec)     DT(%)",
"------------------------------------------------------------------------------------",
"Na                    Rh 50  970-Auto Al  0 - 20    0.8 - 1.2   Live -  179   14",
"",
"<Profile>",
"Channel_info_start",
"Channel : Na",
"Points : 2048",
"Range : 0.000000 - 20.48",
"Step : 0.010000",
"Channel_info_end",
"0",
"0",
"0",
"0",
"0",
"0",
"0",
"0",
"0",
"0",
"0",
"0",
"0",
"0",
"0",
"16",
"59",
"61",
"45",
"51",
"39",
"45",
"48",
"41",
"50",
"48",
"40",
"52",
"52",
"41",
"59",
"45",
"32",
"38",
"45",
"46",
"40",
"49",
"27",
"45",
"38",
"38",
"52",
"36",
"39",
"35",
"45",
"40",
"42",
"46",
"40",
"34",
"40",
"28",
"35",
"43",
"38",
"44",
"63",
"61",
"41",
"51",
"57",
"55",
"53",
"45",
"43",
"50",
"48",
"44",
"63",
"56",
"53",
"77",
"98",
"96",
"96",
"92",
"122",
"130",
"182",
"294",
"791",
"1654",
"3150",
"4676",
"5800",
"6229",
"5690",
"4530",
"3162",
"1719",
"891",
"483",
"276",
"169",
"170",
"115",
"160",
"187",
"197",
"178",
"173",
"139",
"104",
"57",
"43",
"32",
"29",
"30",
"39",
"41",
"41",
"46",
"63",
"38",
"46",
"44",
"40",
"29",
"34",
"38",
"22",
"27",
"29",
"21",
"30",
"18",
"23",
"46",
"42",
"36",
"45",
"56",
"45",
"51",
"54",
"55",
"40",
"35",
"56",
"42",
"48",
"42",
"51",
"39",
"39",
"36",
"37",
"34",
"27",
"40",
"45",
"42",
"32",
"46",
"45",
"37",
"44",
"40",
"48",
"32",
"36",
"54",
"62",
"43",
"59",
"58",
"50",
"59",
"51",
"42",
"46",
"63",
"82",
"79",
"112",
"190",
"312",
"437",
"755",
"1066",
"1582",
"1821",
"2056",
"2035",
"1907",
"1474",
"1047",
"667",
"410",
"274",
"213",
"176",
"162",
"174",
"214",
"234",
"274",
"290",
"297",
"334",
"302",
"252",
"222",
"149",
"146",
"107",
"96",
"98",
"69",
"79",
"85",
"79",
"72",
"89",
"96",
"120",
"119",
"125",
"138",
"141",
"146",
"184",
"166",
"142",
"165",
"192",
"186",
"166",
"186",
"161",
"147",
"157",
"172",
"178",
"126",
"143",
"155",
"139",
"144",
"116",
"148",
"131",
"135",
"120",
"145",
"126",
"129",
"135",
"137",
"143",
"133",
"146",
"141",
"124",
"125",
"124",
"142",
"143",
"148",
"116",
"128",
"148",
"176",
"147",
"150",
"145",
"168",
"160",
"156",
"172",
"144",
"175",
"178",
"154",
"155",
"166",
"189",
"149",
"163",
"165",
"189",
"179",
"199",
"173",
"187",
"179",
"177",
"163",
"192",
"205",
"228",
"206",
"206",
"210",
"219",
"213",
"215",
"216",
"239",
"243",
"231",
"251",
"271",
"240",
"231",
"266",
"251",
"259",
"286",
"257",
"250",
"279",
"283",
"295",
"279",
"299",
"337",
"324",
"318",
"330",
"315",
"308",
"316",
"276",
"297",
"275",
"283",
"278",
"290",
"295",
"302",
"289",
"305",
"322",
"295",
"328",
"248",
"295",
"328",
"304",
"314",
"299",
"324",
"303",
"332",
"311",
"334",
"312",
"316",
"343",
"349",
"318",
"319",
"330",
"304",
"286",
"324",
"330",
"285",
"294",
"310",
"289",
"267",
"304",
"318",
"314",
"332",
"320",
"310",
"296",
"295",
"298",
"326",
"337",
"296",
"312",
"308",
"329",
"315",
"333",
"324",
"291",
"333",
"274",
"272",
"315",
"301",
"303",
"319",
"298",
"336",
"344",
"324",
"357",
"392",
"363",
"362",
"409",
"416",
"405",
"402",
"357",
"360",
"372",
"352",
"323",
"355",
"324",
"322",
"310",
"311",
"323",
"344",
"309",
"329",
"282",
"323",
"316",
"328",
"314",
"341",
"328",
"339",
"346",
"412",
"419",
"468",
"480",
"469",
"470",
"466",
"493",
"418",
"417",
"400",
"337",
"378",
"345",
"326",
"307",
"278",
"303",
"338",
"304",
"322",
"311",
"310",
"290",
"308",
"332",
"312",
"331",
"296",
"311",
"316",
"292",
"297",
"328",
"304",
"315",
"323",
"304",
"311",
"333",
"299",
"294",
"315",
"302",
"301",
"312",
"339",
"314",
"326",
"295",
"347",
"292",
"322",
"316",
"324",
"299",
"333",
"314",
"317",
"318",
"306",
"294",
"310",
"285",
"329",
"289",
"296",
"309",
"317",
"326",
"304",
"333",
"315",
"305",
"328",
"298",
"290",
"308",
"311",
"263",
"291",
"298",
"317",
"318",
"295",
"293",
"289",
"320",
"324",
"271",
"293",
"301",
"352",
"301",
"307",
"306",
"324",
"319",
"310",
"294",
"302",
"325",
"336",
"289",
"296",
"322",
"306",
"312",
"332",
"309",
"342",
"277",
"312",
"286",
"283",
"296",
"325",
"320",
"323",
"312",
"317",
"295",
"347",
"315",
"275",
"306",
"302",
"302",
"311",
"310",
"341",
"332",
"357",
"293",
"331",
"320",
"347",
"337",
"334",
"301",
"309",
"294",
"309",
"310",
"332",
"241",
"291",
"296",
"276",
"272",
"305",
"262",
"252",
"281",
"268",
"292",
"317",
"319",
"282",
"252",
"303",
"282",
"283",
"299",
"315",
"284",
"279",
"258",
"281",
"252",
"306",
"272",
"263",
"267",
"266",
"290",
"259",
"250",
"274",
"267",
"259",
"265",
"303",
"290",
"272",
"286",
"292",
"288",
"291",
"258",
"283",
"274",
"270",
"284",
"317",
"288",
"281",
"259",
"268",
"299",
"329",
"269",
"285",
"244",
"243",
"265",
"289",
"275",
"240",
"257",
"297",
"253",
"283",
"293",
"278",
"239",
"226",
"245",
"272",
"245",
"265",
"252",
"288",
"254",
"255",
"275",
"259",
"251",
"289",
"275",
"299",
"262",
"255",
"271",
"241",
"257",
"255",
"243",
"252",
"251",
"245",
"239",
"284",
"256",
"254",
"241",
"278",
"270",
"249",
"257",
"252",
"245",
"267",
"270",
"206",
"246",
"235",
"245",
"240",
"253",
"241",
"242",
"293",
"231",
"257",
"256",
"231",
"266",
"248",
"234",
"236",
"262",
"294",
"250",
"229",
"246",
"262",
"226",
"261",
"243",
"254",
"239",
"263",
"253",
"188",
"239",
"225",
"241",
"279",
"249",
"248",
"214",
"232",
"234",
"282",
"214",
"238",
"190",
"242",
"234",
"288",
"236",
"230",
"228",
"227",
"254",
"209",
"228",
"209",
"229",
"250",
"219",
"236",
"216",
"202",
"222",
"230",
"236",
"209",
"216",
"235",
"214",
"222",
"202",
"227",
"234",
"228",
"211",
"226",
"243",
"225",
"199",
"215",
"201",
"237",
"216",
"230",
"212",
"216",
"222",
"200",
"230",
"224",
"194",
"224",
"202",
"229",
"197",
"211",
"189",
"206",
"223",
"214",
"211",
"240",
"244",
"230",
"214",
"218",
"194",
"198",
"218",
"224",
"206",
"191",
"203",
"204",
"195",
"177",
"209",
"225",
"194",
"221",
"222",
"213",
"191",
"231",
"195",
"228",
"203",
"190",
"186",
"194",
"208",
"203",
"204",
"221",
"203",
"212",
"175",
"213",
"225",
"228",
"212",
"243",
"204",
"212",
"190",
"229",
"203",
"174",
"181",
"216",
"188",
"211",
"196",
"212",
"200",
"184",
"189",
"196",
"191",
"177",
"189",
"190",
"213",
"187",
"166",
"214",
"198",
"194",
"182",
"204",
"208",
"187",
"216",
"192",
"214",
"184",
"174",
"196",
"197",
"213",
"178",
"216",
"169",
"195",
"177",
"203",
"190",
"201",
"174",
"198",
"215",
"189",
"181",
"196",
"201",
"190",
"209",
"192",
"191",
"187",
"192",
"209",
"185",
"212",
"175",
"211",
"186",
"211",
"187",
"214",
"202",
"209",
"191",
"231",
"172",
"201",
"189",
"210",
"253",
"204",
"174",
"209",
"204",
"179",
"239",
"216",
"196",
"190",
"206",
"211",
"216",
"231",
"251",
"227",
"216",
"234",
"230",
"264",
"230",
"256",
"246",
"246",
"259",
"279",
"257",
"267",
"262",
"292",
"276",
"285",
"298",
"315",
"321",
"360",
"344",
"426",
"382",
"447",
"455",
"495",
"496",
"557",
"586",
"678",
"664",
"736",
"847",
"880",
"930",
"1016",
"1057",
"1137",
"1079",
"1263",
"1261",
"1279",
"1238",
"1399",
"1351",
"1472",
"1395",
"1530",
"1296",
"1386",
"1321",
"1298",
"1264",
"1248",
"1099",
"1145",
"975",
"946",
"888",
"895",
"804",
"761",
"630",
"648",
"542",
"546",
"478",
"471",
"430",
"388",
"343",
"343",
"326",
"318",
"280",
"266",
"289",
"315",
"266",
"363",
"282",
"349",
"354",
"391",
"424",
"449",
"474",
"511",
"530",
"533",
"561",
"551",
"554",
"484",
"488",
"518",
"423",
"378",
"354",
"325",
"302",
"268",
"257",
"248",
"235",
"187",
"205",
"189",
"175",
"179",
"169",
"95473",
"Channel_info_start",
"Channel : Mg",
"Points : 0",
"Range : 0.000000 - 0.000000",
"Step : 0.010000",
"Channel_info_end",
"Channel_info_start",
"Channel : Al",
"Points : 0",
"Range : 0.000000 - 0.000000",
"Step : 0.010000",
"Channel_info_end",
"Channel_info_start",
"Channel : Si",
"Points : 0",
"Range : 0.000000 - 0.000000",
"Step : 0.010000",
"Channel_info_end",
"Channel_info_start",
"Channel : P ",
"Points : 0",
"Range : 0.000000 - 0.000000",
"Step : 0.010000",
"Channel_info_end",
"Channel_info_start",
"Channel : S ",
"Points : 0",
"Range : 0.000000 - 0.000000",
"Step : 0.010000",
"Channel_info_end",
"Channel_info_start",
"Channel : Cl",
"Points : 0",
"Range : 0.000000 - 0.000000",
"Step : 0.010000",
"Channel_info_end",
"Channel_info_start",
"Channel : K ",
"Points : 0",
"Range : 0.000000 - 0.000000",
"Step : 0.010000",
"Channel_info_end",
"Channel_info_start",
"Channel : Ca",
"Points : 0",
"Range : 0.000000 - 0.000000",
"Step : 0.010000",
"Channel_info_end",
"Channel_info_start",
"Channel : Ti",
"Points : 0",
"Range : 0.000000 - 0.000000",
"Step : 0.010000",
"Channel_info_end",
"Channel_info_start",
"Channel : V ",
"Points : 0",
"Range : 0.000000 - 0.000000",
"Step : 0.010000",
"Channel_info_end",
"Channel_info_start",
"Channel : Cr",
"Points : 0",
"Range : 0.000000 - 0.000000",
"Step : 0.010000",
"Channel_info_end",
"Channel_info_start",
"Channel : Mn",
"Points : 0",
"Range : 0.000000 - 0.000000",
"Step : 0.010000",
"Channel_info_end",
"Channel_info_start",
"Channel : Fe",
"Points : 0",
"Range : 0.000000 - 0.000000",
"Step : 0.010000",
"Channel_info_end",
"Channel_info_start",
"Channel : Cu",
"Points : 0",
"Range : 0.000000 - 0.000000",
"Step : 0.010000",
"Channel_info_end",
"Channel_info_start",
"Channel : Zn",
"Points : 0",
"Range : 0.000000 - 0.000000",
"Step : 0.010000",
"Channel_info_end",
"Channel_info_start",
"Channel : Sr",
"Points : 0",
"Range : 0.000000 - 0.000000",
"Step : 0.010000",
"Channel_info_end",
"Channel_info_start",
"Channel : Pb",
"Points : 0",
"Range : 0.000000 - 0.000000",
"Step : 0.010000",
"Channel_info_end",
"",
"Qualitative Result",
"--------------------------------------------------------------------------------",
"Element :  Si, P , Ca, Rh",
"",
"Peak List",
"--------------------------------------------------------------------------------",
"Channel               Line        keV     Net Int.(cps/uA)",
"--------------------------------------------------------------------------------",
"Na                    SiKa         1.74     0.431",
"                      P Ka         2.00     0.011",
"                      CaKa         3.68     0.162",
"                      CaKb         4.02     0.020",
"                      ----         4.56     0.008",
"                      ----         8.64     0.017",
"                      RhKaC       19.17     0.131",
"                      ----        19.45     0.056",
"                      RhKa        20.07     0.042",
"--------------------------------------------------------------------------------",
"",
"Quantitative Result",
"--------------------------------------------------------------------------------",
"Analyte               Result             Std.Dev. Proc.-Calc. Line Intensity(cps/uA)",
"--------------------------------------------------------------------------------",
"====[No. 1 Layer]====< Layer1               >===============================",
"Layer1                   0.000 ug/cm2    -------- Flux       -------- --------",