File: inputs/edxCalibration/edx_raw/2010-06/SrF2 15761.20100611020701.csv
"Sample    : SrF2 15761",
"Operator  : Luís",
"Comment  : cubatao-g-policarbonato",
"Group     : kerr2007ag180cal_lt",
"Date       : 2010-06-11 02:02:57",
"",
"Mesurement Condition",
"------------------------------------------------------------------------------------",
"Instrument : 700HS2   Atmosphere : Vac.   Collimator : 10(mm)   Spin : No",
"------------------------------------------------------------------------------------",
"Analyte               TG kV   uA      FI Acq.(keV)  Anal.(keV)  Time(sec)     DT(%)",
"------------------------------------------------------------------------------------",
"Na                    Rh 50  237-Auto Al  0 - 20    0.8 - 1.2   Live -  179   15",
"",
"<Profile>",
"Channel_info_start",
"Channel : Na",
"Points : 2048",
"Range : 0.000000 - 20.48",
"Step : 0.010000",
"Channel_info_end",
"0",
"0",
"0",
"0",
"0",
"0",
"0",
"0",
"0",
"0",
"0",
"0",
"0",
"0",
"0",
"11",
"35",
"29",
"27",
"35",
"24",
"32",
"36",
"43",
"32",
"29",
"29",
"35",
"25",
"35",
"36",
"34",
"30",
"24",
"34",
"50",
"34",
"28",
"39",
"24",
"34",
"32",
"27",
"24",
"26",
"22",
"15",
"29",
"28",
"19",
"22",
"19",
"23",
"22",
"28",
"18",
"23",
"24",
"15",
"27",
"22",
"19",
"28",
"19",
"21",
"26",
"24",
"26",
"15",
"19",
"22",
"23",
"27",
"29",
"38",
"54",
"66",
"78",
"111",
"144",
"130",
"153",
"142",
"137",
"168",
"227",
"366",
"684",
"1186",
"1582",
"1940",
"2074",
"2053",
"1639",
"1355",
"1073",
"755",
"533",
"411",
"317",
"213",
"148",
"87",
"64",
"65",
"35",
"25",
"25",
"42",
"40",
"37",
"28",
"29",
"32",
"22",
"38",
"17",
"16",
"14",
"17",
"15",
"15",
"13",
"11",
"28",
"5",
"14",
"6",
"15",
"18",
"22",
"13",
"14",
"21",
"16",
"18",
"13",
"17",
"12",
"13",
"18",
"14",
"17",
"21",
"16",
"24",
"13",
"16",
"12",
"12",
"11",
"17",
"10",
"9",
"12",
"12",
"14",
"18",
"14",
"15",
"15",
"16",
"13",
"16",
"10",
"9",
"9",
"14",
"21",
"14",
"12",
"15",
"16",
"11",
"22",
"24",
"37",
"43",
"79",
"121",
"188",
"287",
"378",
"494",
"575",
"517",
"499",
"365",
"241",
"160",
"85",
"81",
"64",
"49",
"63",
"42",
"54",
"60",
"61",
"79",
"108",
"93",
"65",
"67",
"62",
"48",
"44",
"27",
"28",
"26",
"21",
"25",
"18",
"17",
"31",
"40",
"35",
"23",
"45",
"45",
"39",
"48",
"55",
"56",
"47",
"47",
"44",
"68",
"49",
"38",
"54",
"56",
"49",
"42",
"47",
"45",
"42",
"40",
"43",
"36",
"42",
"34",
"36",
"49",
"35",
"45",
"31",
"24",
"37",
"28",
"31",
"18",
"30",
"24",
"34",
"35",
"27",
"32",
"32",
"45",
"30",
"42",
"40",
"35",
"38",
"43",
"37",
"36",
"39",
"53",
"47",
"48",
"41",
"38",
"52",
"48",
"45",
"51",
"54",
"42",
"44",
"54",
"56",
"53",
"55",
"60",
"67",
"64",
"69",
"56",
"68",
"55",
"63",
"64",
"81",
"84",
"67",
"74",
"91",
"74",
"88",
"76",
"71",
"75",
"84",
"67",
"66",
"62",
"75",
"56",
"80",
"68",
"87",
"67",
"64",
"75",
"71",
"87",
"84",
"79",
"77",
"90",
"95",
"91",
"105",
"104",
"100",
"103",
"81",
"103",
"106",
"92",
"96",
"90",
"95",
"96",
"108",
"108",
"113",
"94",
"87",
"82",
"85",
"72",
"85",
"90",
"97",
"97",
"89",
"96",
"84",
"97",
"84",
"93",
"93",
"101",
"89",
"71",
"100",
"88",
"68",
"84",
"100",
"81",
"93",
"88",
"82",
"79",
"90",
"85",
"100",
"89",
"90",
"89",
"100",
"74",
"91",
"80",
"90",
"94",
"90",
"103",
"94",
"79",
"106",
"98",
"92",
"96",
"97",
"96",
"108",
"107",
"120",
"104",
"111",
"120",
"124",
"131",
"137",
"156",
"171",
"157",
"195",
"197",
"219",
"225",
"214",
"245",
"189",
"199",
"183",
"162",
"134",
"100",
"150",
"98",
"104",
"68",
"83",
"92",
"91",
"97",
"104",
"108",
"90",
"111",
"102",
"110",
"144",
"132",
"163",
"115",
"171",
"148",
"142",
"127",
"103",
"116",
"94",
"101",
"100",
"70",
"115",
"96",
"79",
"87",
"105",
"82",
"106",
"97",
"109",
"89",
"85",
"104",
"82",
"85",
"83",
"105",
"109",
"89",
"136",
"111",
"123",
"155",
"154",
"163",
"154",
"137",
"169",
"141",
"142",
"119",
"134",
"123",
"114",
"106",
"115",
"115",
"133",
"129",
"121",
"114",
"120",
"127",
"104",
"91",
"107",
"116",
"105",
"88",
"100",
"85",
"95",
"83",
"85",
"95",
"103",
"94",
"96",
"93",
"105",
"75",
"94",
"108",
"97",
"90",
"97",
"80",
"100",
"93",
"80",
"96",
"91",
"78",
"74",
"102",
"101",
"92",
"100",
"84",
"79",
"102",
"94",
"100",
"68",
"93",
"103",
"88",
"82",
"70",
"81",
"93",
"98",
"80",
"90",
"104",
"80",
"78",
"94",
"101",
"109",
"88",
"91",
"122",
"97",
"81",
"90",
"103",
"107",
"105",
"84",
"81",
"84",
"98",
"90",
"65",
"92",
"76",
"97",
"81",
"102",
"101",
"93",
"87",
"81",
"90",
"100",
"85",
"90",
"82",
"78",
"84",
"96",
"98",
"84",
"65",
"70",
"105",
"89",
"82",
"83",
"102",
"77",
"77",
"81",
"104",
"96",
"77",
"96",
"88",
"115",
"79",
"79",
"83",
"105",
"74",
"80",
"97",
"94",
"81",
"94",
"96",
"66",
"85",
"90",
"77",
"81",
"92",
"75",
"71",
"72",
"69",
"69",
"87",
"94",
"82",
"81",
"71",
"90",
"94",
"97",
"63",
"91",
"93",
"76",
"82",
"75",
"84",
"66",
"68",
"92",
"56",
"76",
"79",
"75",
"83",
"81",
"83",
"79",
"76",
"74",
"71",
"83",
"69",
"69",
"77",
"72",
"82",
"84",
"80",
"80",
"65",
"72",
"72",
"57",
"65",
"82",
"88",
"63",
"94",
"84",
"90",
"80",
"75",
"89",
"90",
"85",
"88",
"81",
"90",
"85",
"93",
"104",
"85",
"105",
"100",
"89",
"107",
"95",
"101",
"103",
"111",
"123",
"92",
"122",
"91",
"127",
"132",
"174",
"175",
"256",
"354",
"523",
"815",
"1185",
"1764",
"2561",
"3618",
"4951",
"6436",
"8451",
"10022",
"12093",
"13338",
"15748",
"15667",
"16373",
"15581",
"15431",
"13633",
"12492",
"10361",
"8811",
"6717",
"5394",
"3928",
"2800",
"1817",
"1291",
"845",
"591",
"341",
"227",
"179",
"124",
"120",
"87",
"85",
"111",
"90",
"87",
"91",
"95",
"72",
"85",
"80",
"90",
"67",
"69",
"72",
"85",
"90",
"61",
"79",
"93",
"74",
"80",
"74",
"82",
"79",
"84",
"69",
"74",
"77",
"82",
"77",
"92",
"81",
"98",
"75",
"81",
"74",
"104",
"97",
"89",
"83",
"96",
"98",
"89",
"79",
"93",
"82",
"113",
"88",
"121",
"126",
"153",
"207",
"255",
"366",
"463",
"612",
"848",
"1024",
"1267",
"1518",
"1835",
"2063",
"2375",
"2508",
"2562",
"2570",
"2569",
"2370",
"2160",
"1926",
"1702",
"1450",
"1178",
"1055",
"915",
"739",
"671",
"571",
"484",
"431",
"401",
"334",
"357",
"211",
"220",
"161",
"149",
"100",
"97",
"104",
"88",
"71",
"61",
"60",
"62",
"56",
"45",
"47",
"60",
"53",
"63",
"39",
"66",
"51",
"67",
"71",
"47",
"54",
"52",
"63",
"52",
"54",
"62",
"66",
"58",
"50",
"60",
"36",
"54",
"52",
"63",
"38",
"58",
"48",
"49",
"65",
"57",
"51",
"49",
"42",
"58",
"62",
"44",
"41",
"47",
"55",
"52",
"65",
"54",
"58",
"51",
"58",
"57",
"48",
"54",
"57",
"37",
"43",
"42",
"44",
"51",
"39",
"62",
"44",
"44",
"51",
"54",
"56",
"64",
"54",
"64",
"42",
"61",
"65",
"60",
"57",
"48",
"43",
"47",
"56",
"64",
"40",
"52",
"61",
"55",
"57",
"57",
"62",
"57",
"40",
"45",
"53",
"64",
"67",
"58",
"72",
"60",
"60",
"62",
"71",
"51",
"68",
"65",
"67",
"63",
"94",
"57",
"70",
"63",
"69",
"74",
"81",
"83",
"82",
"90",
"96",
"100",
"88",
"117",
"115",
"113",
"111",
"126",
"137",
"153",
"147",
"157",
"170",
"217",
"224",
"239",
"217",
"254",
"228",
"282",
"268",
"328",
"322",
"319",
"319",
"344",
"356",
"333",
"342",
"366",
"354",
"325",
"318",
"326",
"287",
"294",
"252",
"283",
"254",
"240",
"194",
"197",
"179",
"183",
"179",
"157",
"140",
"136",
"131",
"126",
"106",
"92",
"85",
"92",
"80",
"87",
"72",
"84",
"72",
"81",
"78",
"96",
"97",
"98",
"108",
"118",
"95",
"144",
"134",
"159",
"157",
"157",
"167",
"159",
"177",
"163",
"171",
"157",
"146",
"130",
"110",
"108",
"90",
"82",
"84",
"66",
"55",
"51",
"42",
"44",
"42",
"63",
"44",
"25917",
"Channel_info_start",
"Channel : Mg",
"Points : 0",
"Range : 0.000000 - 0.000000",
"Step : 0.010000",
"Channel_info_end",
"Channel_info_start",
"Channel : Al",
"Points : 0",
"Range : 0.000000 - 0.000000",
"Step : 0.010000",
"Channel_info_end",
"Channel_info_start",
"Channel : Si",
"Points : 0",
"Range : 0.000000 - 0.000000",
"Step : 0.010000",
"Channel_info_end",
"Channel_info_start",
"Channel : P ",
"Points : 0",
"Range : 0.000000 - 0.000000",
"Step : 0.010000",
"Channel_info_end",
"Channel_info_start",
"Channel : S ",
"Points : 0",
"Range : 0.000000 - 0.000000",
"Step : 0.010000",
"Channel_info_end",
"Channel_info_start",
"Channel : Cl",
"Points : 0",
"Range : 0.000000 - 0.000000",
"Step : 0.010000",
"Channel_info_end",
"Channel_info_start",
"Channel : K ",
"Points : 0",
"Range : 0.000000 - 0.000000",
"Step : 0.010000",
"Channel_info_end",
"Channel_info_start",
"Channel : Ca",
"Points : 0",
"Range : 0.000000 - 0.000000",
"Step : 0.010000",
"Channel_info_end",
"Channel_info_start",
"Channel : Ti",
"Points : 0",
"Range : 0.000000 - 0.000000",
"Step : 0.010000",
"Channel_info_end",
"Channel_info_start",
"Channel : V ",
"Points : 0",
"Range : 0.000000 - 0.000000",
"Step : 0.010000",
"Channel_info_end",
"Channel_info_start",
"Channel : Cr",
"Points : 0",
"Range : 0.000000 - 0.000000",
"Step : 0.010000",
"Channel_info_end",
"Channel_info_start",
"Channel : Mn",
"Points : 0",
"Range : 0.000000 - 0.000000",
"Step : 0.010000",
"Channel_info_end",
"Channel_info_start",
"Channel : Fe",
"Points : 0",
"Range : 0.000000 - 0.000000",
"Step : 0.010000",
"Channel_info_end",
"Channel_info_start",
"Channel : Cu",
"Points : 0",
"Range : 0.000000 - 0.000000",
"Step : 0.010000",
"Channel_info_end",
"Channel_info_start",
"Channel : Zn",
"Points : 0",
"Range : 0.000000 - 0.000000",
"Step : 0.010000",
"Channel_info_end",
"Channel_info_start",
"Channel : Sr",
"Points : 0",
"Range : 0.000000 - 0.000000",
"Step : 0.010000",
"Channel_info_end",
"Channel_info_start",
"Channel : Pb",
"Points : 0",
"Range : 0.000000 - 0.000000",
"Step : 0.010000",
"Channel_info_end",
"",
"Qualitative Result",
"--------------------------------------------------------------------------------",
"Element :  Sr, Ca, Ta, Ru",
"",
"Peak List",
"--------------------------------------------------------------------------------",
"Channel               Line        keV     Net Int.(cps/uA)",
"--------------------------------------------------------------------------------",
"Na                    ----         1.59     0.032",
"                      SrLa         1.82     0.575",
"                      CaKa         3.68     0.188",
"                      CaKb         4.00     0.027",
"                      TaLa         8.13     0.059",
"                      TaLb1        9.36     0.033",
"                      SrKa        14.12     7.936",
"                      SrKb        15.81     1.252",
"                      ----        16.14     0.117",
"                      RuKa        19.24     0.120",
"                      ----        19.49     0.039",
"                      ----        20.01     0.055",
"--------------------------------------------------------------------------------",
"",
"Quantitative Result",
"--------------------------------------------------------------------------------",
"Analyte               Result             Std.Dev. Proc.-Calc. Line Intensity(cps/uA)",
"--------------------------------------------------------------------------------",
"====[No. 1 Layer]====< Layer1               >===============================",
"Layer1                   0.000 ug/cm2    -------- Flux       -------- --------",