File: inputs/edxCalibration/edx_raw/2010-06/Tb 31519.20100626151909.csv
"Sample    : Tb 31519",
"Operator  : thiago",
"Comment  : cubatao-g-policarbonato",
"Group     : kerr2007ag180cal_lt",
"Date       : 2010-06-26 15:15:05",
"",
"Mesurement Condition",
"------------------------------------------------------------------------------------",
"Instrument : 700HS2   Atmosphere : Vac.   Collimator : 10(mm)   Spin : No",
"------------------------------------------------------------------------------------",
"Analyte               TG kV   uA      FI Acq.(keV)  Anal.(keV)  Time(sec)     DT(%)",
"------------------------------------------------------------------------------------",
"Na                    Rh 50  168-Auto Al  0 - 20    0.8 - 1.2   Live -  179   15",
"",
"<Profile>",
"Channel_info_start",
"Channel : Na",
"Points : 2048",
"Range : 0.000000 - 20.48",
"Step : 0.010000",
"Channel_info_end",
"0",
"0",
"0",
"0",
"0",
"0",
"0",
"0",
"0",
"0",
"0",
"0",
"0",
"0",
"1",
"12",
"27",
"28",
"25",
"28",
"32",
"35",
"28",
"27",
"28",
"39",
"27",
"47",
"61",
"101",
"87",
"107",
"106",
"74",
"102",
"71",
"72",
"64",
"42",
"34",
"30",
"24",
"28",
"26",
"33",
"34",
"44",
"33",
"30",
"33",
"23",
"29",
"28",
"28",
"20",
"28",
"35",
"28",
"22",
"29",
"37",
"28",
"27",
"36",
"28",
"20",
"26",
"33",
"26",
"15",
"42",
"29",
"33",
"24",
"38",
"24",
"35",
"46",
"29",
"35",
"30",
"41",
"26",
"44",
"33",
"60",
"57",
"92",
"126",
"168",
"231",
"280",
"341",
"320",
"246",
"219",
"135",
"140",
"132",
"166",
"161",
"153",
"149",
"165",
"151",
"193",
"197",
"262",
"305",
"289",
"313",
"330",
"458",
"772",
"1264",
"2127",
"2962",
"3851",
"4301",
"4351",
"4225",
"3986",
"3669",
"3132",
"2575",
"1959",
"1344",
"836",
"514",
"358",
"343",
"384",
"433",
"425",
"438",
"419",
"267",
"190",
"144",
"103",
"71",
"88",
"83",
"82",
"53",
"59",
"57",
"59",
"67",
"63",
"86",
"91",
"137",
"169",
"181",
"166",
"195",
"139",
"160",
"106",
"86",
"73",
"61",
"48",
"38",
"21",
"30",
"21",
"22",
"18",
"35",
"29",
"25",
"27",
"32",
"27",
"49",
"52",
"67",
"86",
"125",
"189",
"257",
"347",
"370",
"330",
"325",
"239",
"187",
"146",
"86",
"61",
"46",
"39",
"41",
"47",
"33",
"40",
"50",
"58",
"67",
"67",
"65",
"58",
"46",
"47",
"34",
"28",
"25",
"24",
"24",
"25",
"24",
"30",
"21",
"27",
"30",
"26",
"30",
"35",
"30",
"42",
"34",
"36",
"32",
"48",
"40",
"51",
"49",
"44",
"38",
"48",
"42",
"59",
"58",
"48",
"49",
"45",
"51",
"45",
"38",
"50",
"53",
"46",
"51",
"52",
"48",
"41",
"36",
"46",
"53",
"30",
"47",
"44",
"33",
"44",
"50",
"39",
"53",
"41",
"47",
"40",
"42",
"42",
"45",
"49",
"47",
"48",
"51",
"49",
"40",
"51",
"49",
"52",
"46",
"49",
"51",
"41",
"44",
"38",
"45",
"47",
"54",
"58",
"63",
"41",
"52",
"62",
"49",
"45",
"51",
"62",
"60",
"78",
"74",
"52",
"69",
"49",
"60",
"62",
"70",
"63",
"85",
"67",
"90",
"74",
"74",
"71",
"89",
"91",
"71",
"81",
"106",
"89",
"71",
"89",
"92",
"98",
"109",
"91",
"94",
"86",
"108",
"87",
"81",
"96",
"96",
"89",
"85",
"86",
"88",
"81",
"98",
"97",
"83",
"89",
"97",
"104",
"99",
"101",
"100",
"85",
"82",
"108",
"110",
"89",
"90",
"102",
"92",
"104",
"116",
"94",
"119",
"89",
"101",
"115",
"98",
"99",
"88",
"81",
"94",
"120",
"109",
"90",
"85",
"88",
"90",
"102",
"101",
"98",
"110",
"98",
"97",
"102",
"98",
"101",
"90",
"78",
"102",
"88",
"92",
"98",
"78",
"99",
"92",
"91",
"112",
"88",
"100",
"89",
"97",
"89",
"107",
"90",
"103",
"98",
"115",
"114",
"112",
"141",
"146",
"160",
"127",
"129",
"132",
"133",
"124",
"121",
"126",
"122",
"115",
"98",
"97",
"98",
"112",
"104",
"102",
"95",
"106",
"102",
"98",
"88",
"100",
"107",
"108",
"99",
"128",
"119",
"120",
"125",
"127",
"146",
"104",
"124",
"134",
"125",
"113",
"101",
"121",
"109",
"113",
"115",
"134",
"122",
"119",
"121",
"103",
"107",
"139",
"132",
"159",
"181",
"223",
"284",
"399",
"446",
"551",
"630",
"751",
"676",
"729",
"681",
"604",
"507",
"420",
"394",
"281",
"196",
"187",
"125",
"133",
"122",
"98",
"132",
"100",
"103",
"101",
"98",
"94",
"114",
"107",
"119",
"103",
"82",
"114",
"98",
"96",
"94",
"98",
"94",
"94",
"107",
"92",
"117",
"106",
"88",
"122",
"114",
"103",
"115",
"122",
"111",
"106",
"117",
"135",
"121",
"120",
"129",
"124",
"147",
"131",
"180",
"182",
"268",
"387",
"527",
"793",
"1131",
"1624",
"2179",
"3207",
"4333",
"5797",
"6970",
"8578",
"9466",
"10687",
"10841",
"10992",
"9867",
"9266",
"7612",
"6400",
"4834",
"3549",
"2441",
"1670",
"1067",
"659",
"447",
"333",
"218",
"193",
"186",
"146",
"114",
"104",
"128",
"111",
"103",
"132",
"117",
"94",
"110",
"106",
"106",
"119",
"102",
"111",
"133",
"149",
"149",
"166",
"193",
"208",
"214",
"280",
"217",
"223",
"222",
"211",
"174",
"185",
"176",
"166",
"123",
"121",
"121",
"104",
"89",
"106",
"88",
"120",
"101",
"90",
"101",
"82",
"104",
"100",
"109",
"97",
"87",
"94",
"96",
"89",
"109",
"112",
"99",
"134",
"133",
"157",
"180",
"189",
"219",
"251",
"255",
"336",
"374",
"397",
"393",
"411",
"453",
"541",
"539",
"551",
"528",
"590",
"616",
"651",
"640",
"904",
"1100",
"1604",
"2163",
"2922",
"3510",
"4554",
"5236",
"6395",
"6602",
"7264",
"7162",
"6985",
"6497",
"5876",
"4934",
"4353",
"3422",
"2756",
"2101",
"1649",
"1189",
"994",
"830",
"701",
"509",
"486",
"460",
"450",
"397",
"378",
"384",
"403",
"342",
"345",
"306",
"273",
"221",
"168",
"175",
"148",
"122",
"149",
"111",
"100",
"99",
"107",
"90",
"102",
"89",
"90",
"96",
"88",
"74",
"73",
"75",
"66",
"63",
"86",
"62",
"66",
"65",
"60",
"79",
"81",
"66",
"77",
"72",
"69",
"66",
"70",
"63",
"65",
"54",
"54",
"48",
"76",
"60",
"70",
"64",
"66",
"54",
"64",
"53",
"85",
"81",
"78",
"71",
"83",
"77",
"98",
"97",
"90",
"121",
"108",
"111",
"98",
"103",
"108",
"94",
"107",
"99",
"95",
"99",
"111",
"147",
"136",
"173",
"209",
"300",
"395",
"462",
"610",
"680",
"889",
"882",
"1094",
"974",
"1079",
"1039",
"962",
"896",
"752",
"665",
"648",
"456",
"448",
"356",
"295",
"257",
"228",
"246",
"297",
"276",
"298",
"297",
"379",
"367",
"388",
"345",
"330",
"310",
"332",
"250",
"246",
"199",
"162",
"165",
"122",
"92",
"94",
"72",
"78",
"61",
"66",
"61",
"42",
"54",
"63",
"63",
"81",
"65",
"78",
"71",
"57",
"99",
"81",
"78",
"84",
"81",
"106",
"58",
"82",
"76",
"82",
"72",
"60",
"55",
"47",
"49",
"50",
"46",
"51",
"55",
"42",
"48",
"47",
"49",
"50",
"44",
"53",
"58",
"38",
"45",
"54",
"65",
"53",
"49",
"46",
"52",
"50",
"49",
"48",
"39",
"49",
"46",
"60",
"48",
"50",
"50",
"44",
"52",
"45",
"42",
"47",
"42",
"50",
"59",
"42",
"44",
"49",
"38",
"60",
"36",
"53",
"32",
"53",
"46",
"42",
"47",
"34",
"57",
"59",
"39",
"49",
"48",
"64",
"39",
"53",
"53",
"42",
"36",
"36",
"53",
"38",
"47",
"38",
"39",
"40",
"62",
"54",
"51",
"59",
"48",
"48",
"45",
"35",
"38",
"54",
"57",
"50",
"57",
"37",
"36",
"51",
"51",
"47",
"51",
"53",
"38",
"49",
"42",
"57",
"40",
"53",
"38",
"50",
"40",
"41",
"46",
"41",
"55",
"42",
"39",
"50",
"39",
"39",
"38",
"65",
"55",
"48",
"66",
"53",
"42",
"52",
"57",
"49",
"57",
"64",
"63",
"61",
"49",
"55",
"58",
"64",
"61",
"62",
"65",
"62",
"71",
"69",
"67",
"82",
"76",
"97",
"53",
"100",
"89",
"92",
"100",
"132",
"116",
"122",
"99",
"154",
"136",
"146",
"146",
"189",
"178",
"205",
"168",
"191",
"240",
"257",
"249",
"271",
"253",
"239",
"232",
"276",
"243",
"285",
"285",
"257",
"237",
"239",
"199",
"210",
"187",
"202",
"183",
"180",
"178",
"169",
"159",
"148",
"128",
"133",
"86",
"88",
"94",
"104",
"89",
"96",
"63",
"88",
"65",
"74",
"67",
"94",
"92",
"101",
"116",
"116",
"135",
"141",
"158",
"171",
"191",
"183",
"205",
"265",
"239",
"264",
"267",
"235",
"245",
"245",
"181",
"196",
"177",
"138",
"129",
"125",
"91",
"79",
"77",
"58",
"58",
"44",
"40",
"41",
"41",
"22227",
"Channel_info_start",
"Channel : Mg",
"Points : 0",
"Range : 0.000000 - 0.000000",
"Step : 0.010000",
"Channel_info_end",
"Channel_info_start",
"Channel : Al",
"Points : 0",
"Range : 0.000000 - 0.000000",
"Step : 0.010000",
"Channel_info_end",
"Channel_info_start",
"Channel : Si",
"Points : 0",
"Range : 0.000000 - 0.000000",
"Step : 0.010000",
"Channel_info_end",
"Channel_info_start",
"Channel : P ",
"Points : 0",
"Range : 0.000000 - 0.000000",
"Step : 0.010000",
"Channel_info_end",
"Channel_info_start",
"Channel : S ",
"Points : 0",
"Range : 0.000000 - 0.000000",
"Step : 0.010000",
"Channel_info_end",
"Channel_info_start",
"Channel : Cl",
"Points : 0",
"Range : 0.000000 - 0.000000",
"Step : 0.010000",
"Channel_info_end",
"Channel_info_start",
"Channel : K ",
"Points : 0",
"Range : 0.000000 - 0.000000",
"Step : 0.010000",
"Channel_info_end",
"Channel_info_start",
"Channel : Ca",
"Points : 0",
"Range : 0.000000 - 0.000000",
"Step : 0.010000",
"Channel_info_end",
"Channel_info_start",
"Channel : Ti",
"Points : 0",
"Range : 0.000000 - 0.000000",
"Step : 0.010000",
"Channel_info_end",
"Channel_info_start",
"Channel : V ",
"Points : 0",
"Range : 0.000000 - 0.000000",
"Step : 0.010000",
"Channel_info_end",
"Channel_info_start",
"Channel : Cr",
"Points : 0",
"Range : 0.000000 - 0.000000",
"Step : 0.010000",
"Channel_info_end",
"Channel_info_start",
"Channel : Mn",
"Points : 0",
"Range : 0.000000 - 0.000000",
"Step : 0.010000",
"Channel_info_end",
"Channel_info_start",
"Channel : Fe",
"Points : 0",
"Range : 0.000000 - 0.000000",
"Step : 0.010000",
"Channel_info_end",
"Channel_info_start",
"Channel : Cu",
"Points : 0",
"Range : 0.000000 - 0.000000",
"Step : 0.010000",
"Channel_info_end",
"Channel_info_start",
"Channel : Zn",
"Points : 0",
"Range : 0.000000 - 0.000000",
"Step : 0.010000",
"Channel_info_end",
"Channel_info_start",
"Channel : Sr",
"Points : 0",
"Range : 0.000000 - 0.000000",
"Step : 0.010000",
"Channel_info_end",
"Channel_info_start",
"Channel : Pb",
"Points : 0",
"Range : 0.000000 - 0.000000",
"Step : 0.010000",
"Channel_info_end",
"",
"Qualitative Result",
"--------------------------------------------------------------------------------",
"Element :  Pb, S , Cl, Ca, Ir, Ru",
"",
"Peak List",
"--------------------------------------------------------------------------------",
"Channel               Line        keV     Net Int.(cps/uA)",
"--------------------------------------------------------------------------------",
"Na                    ----         0.61     0.027",
"                      ----         0.71     0.017",
"                      ----         1.84     0.103",
"                      ----         2.15     0.060",
"                      PbMa         2.37     1.216",
"                      S Ka         2.37     0.538",
"                      ClKa         2.68     0.150",
"                      ----         3.10     0.059",
"                      CaKa         3.68     0.159",
"                      CaKb         4.01     0.020",
"                      PbLL         9.19     0.270",
"                      IrLa         9.19     0.089",
"                      PbLa        10.55     6.758",
"                      IrLb1       10.71     0.049",
"                      PbLn        11.30     0.076",
"                      PbLb4       12.25     0.164",
"                      PbLb1       12.61     4.556",
"                      PbLg1       14.76     0.662",
"                      PbLg2       15.16     0.195",
"                      RuKa        19.25     0.147",
"                      ----        19.50     0.050",
"                      ----        19.97     0.098",
"--------------------------------------------------------------------------------",
"",
"Quantitative Result",
"--------------------------------------------------------------------------------",
"Analyte               Result             Std.Dev. Proc.-Calc. Line Intensity(cps/uA)",
"--------------------------------------------------------------------------------",
"====[No. 1 Layer]====< Layer1               >===============================",
"Layer1                   0.000 ug/cm2    -------- Flux       -------- --------",