File: inputs/edxCalibration/edx_raw/2010-06/Te 15768.20100611032816.csv
"Sample    : Te 15768",
"Operator  : Luís",
"Comment  : cubatao-g-policarbonato",
"Group     : kerr2007ag180cal_lt",
"Date       : 2010-06-11 03:24:05",
"",
"Mesurement Condition",
"------------------------------------------------------------------------------------",
"Instrument : 700HS2   Atmosphere : Vac.   Collimator : 10(mm)   Spin : No",
"------------------------------------------------------------------------------------",
"Analyte               TG kV   uA      FI Acq.(keV)  Anal.(keV)  Time(sec)     DT(%)",
"------------------------------------------------------------------------------------",
"Na                    Rh 50  360-Auto Al  0 - 20    0.8 - 1.2   Live -  179   15",
"",
"<Profile>",
"Channel_info_start",
"Channel : Na",
"Points : 2048",
"Range : 0.000000 - 20.48",
"Step : 0.010000",
"Channel_info_end",
"0",
"0",
"0",
"0",
"0",
"0",
"0",
"0",
"0",
"0",
"0",
"0",
"0",
"0",
"0",
"20",
"37",
"33",
"48",
"46",
"39",
"42",
"53",
"33",
"35",
"52",
"46",
"40",
"51",
"37",
"34",
"36",
"33",
"30",
"45",
"35",
"48",
"45",
"40",
"38",
"34",
"59",
"41",
"37",
"41",
"32",
"34",
"37",
"41",
"41",
"47",
"44",
"46",
"40",
"35",
"37",
"37",
"41",
"50",
"54",
"28",
"42",
"49",
"56",
"32",
"51",
"41",
"37",
"54",
"51",
"42",
"44",
"38",
"52",
"42",
"49",
"48",
"42",
"53",
"47",
"56",
"66",
"48",
"59",
"52",
"41",
"59",
"64",
"70",
"61",
"59",
"51",
"64",
"52",
"62",
"84",
"101",
"113",
"134",
"215",
"293",
"253",
"229",
"172",
"142",
"106",
"87",
"78",
"83",
"94",
"91",
"112",
"140",
"145",
"190",
"185",
"144",
"145",
"117",
"99",
"86",
"75",
"61",
"63",
"54",
"72",
"75",
"83",
"94",
"100",
"97",
"103",
"93",
"81",
"66",
"72",
"48",
"58",
"61",
"56",
"73",
"66",
"81",
"58",
"70",
"71",
"70",
"60",
"53",
"89",
"63",
"78",
"80",
"77",
"78",
"83",
"88",
"105",
"102",
"105",
"148",
"172",
"271",
"371",
"530",
"676",
"793",
"796",
"735",
"586",
"475",
"325",
"294",
"234",
"225",
"248",
"286",
"338",
"463",
"581",
"872",
"1217",
"1764",
"2925",
"4697",
"7172",
"10019",
"12382",
"14220",
"13263",
"11972",
"8938",
"6229",
"3783",
"2152",
"1529",
"1573",
"2356",
"3783",
"5340",
"7109",
"8241",
"8847",
"8563",
"7768",
"6394",
"5043",
"3673",
"2790",
"1901",
"1675",
"1417",
"1484",
"1590",
"1946",
"1954",
"1909",
"1652",
"1353",
"930",
"681",
"424",
"390",
"393",
"488",
"569",
"794",
"958",
"1074",
"1068",
"967",
"784",
"594",
"413",
"337",
"281",
"325",
"394",
"438",
"589",
"683",
"702",
"691",
"560",
"436",
"367",
"282",
"208",
"146",
"115",
"106",
"81",
"80",
"66",
"60",
"65",
"58",
"53",
"56",
"69",
"91",
"72",
"69",
"90",
"88",
"93",
"80",
"112",
"86",
"127",
"101",
"101",
"110",
"106",
"108",
"81",
"96",
"77",
"90",
"85",
"74",
"82",
"113",
"72",
"97",
"75",
"84",
"84",
"77",
"108",
"96",
"101",
"81",
"93",
"106",
"113",
"112",
"90",
"127",
"102",
"120",
"130",
"132",
"140",
"118",
"129",
"168",
"121",
"154",
"126",
"166",
"140",
"124",
"148",
"179",
"134",
"180",
"156",
"164",
"158",
"148",
"160",
"159",
"149",
"145",
"144",
"147",
"133",
"107",
"148",
"136",
"114",
"151",
"132",
"144",
"115",
"130",
"142",
"140",
"152",
"131",
"140",
"135",
"139",
"146",
"147",
"159",
"136",
"164",
"144",
"150",
"151",
"178",
"163",
"159",
"175",
"172",
"163",
"178",
"139",
"166",
"158",
"178",
"180",
"180",
"170",
"191",
"183",
"194",
"191",
"174",
"159",
"181",
"175",
"159",
"162",
"187",
"195",
"162",
"155",
"196",
"199",
"163",
"146",
"175",
"162",
"164",
"167",
"196",
"167",
"183",
"199",
"192",
"198",
"192",
"180",
"219",
"209",
"198",
"178",
"230",
"196",
"231",
"217",
"197",
"208",
"225",
"188",
"163",
"182",
"192",
"158",
"168",
"170",
"155",
"184",
"151",
"157",
"154",
"144",
"159",
"168",
"167",
"137",
"142",
"174",
"192",
"198",
"182",
"211",
"217",
"232",
"265",
"212",
"229",
"218",
"199",
"194",
"171",
"175",
"181",
"181",
"167",
"171",
"168",
"182",
"188",
"169",
"172",
"169",
"188",
"169",
"160",
"156",
"178",
"185",
"161",
"152",
"185",
"140",
"192",
"151",
"172",
"156",
"163",
"175",
"187",
"166",
"176",
"164",
"167",
"169",
"190",
"168",
"172",
"154",
"161",
"161",
"160",
"184",
"175",
"174",
"157",
"147",
"150",
"159",
"164",
"169",
"186",
"152",
"160",
"196",
"187",
"182",
"228",
"230",
"219",
"239",
"232",
"236",
"243",
"249",
"215",
"203",
"211",
"192",
"161",
"171",
"143",
"155",
"174",
"146",
"142",
"140",
"161",
"155",
"148",
"127",
"172",
"173",
"144",
"127",
"155",
"180",
"152",
"156",
"162",
"170",
"145",
"142",
"156",
"150",
"166",
"156",
"148",
"167",
"146",
"156",
"166",
"143",
"156",
"157",
"162",
"155",
"139",
"172",
"163",
"144",
"158",
"131",
"127",
"162",
"148",
"138",
"139",
"145",
"161",
"173",
"140",
"167",
"159",
"144",
"156",
"144",
"156",
"148",
"134",
"133",
"155",
"149",
"144",
"136",
"136",
"142",
"137",
"151",
"142",
"152",
"148",
"138",
"140",
"162",
"149",
"138",
"140",
"156",
"179",
"186",
"204",
"174",
"171",
"193",
"185",
"186",
"205",
"164",
"166",
"159",
"157",
"163",
"158",
"166",
"158",
"134",
"134",
"131",
"142",
"125",
"150",
"129",
"145",
"162",
"136",
"145",
"130",
"122",
"132",
"133",
"154",
"130",
"134",
"122",
"115",
"147",
"112",
"121",
"127",
"147",
"150",
"120",
"131",
"135",
"176",
"113",
"158",
"119",
"126",
"122",
"110",
"133",
"148",
"131",
"156",
"133",
"124",
"118",
"135",
"127",
"112",
"120",
"115",
"136",
"106",
"118",
"143",
"118",
"149",
"125",
"133",
"124",
"110",
"142",
"126",
"134",
"117",
"120",
"157",
"115",
"147",
"111",
"123",
"136",
"132",
"133",
"138",
"103",
"111",
"117",
"122",
"119",
"133",
"126",
"106",
"113",
"117",
"136",
"127",
"112",
"123",
"120",
"126",
"124",
"140",
"123",
"135",
"122",
"100",
"102",
"120",
"111",
"110",
"118",
"133",
"124",
"154",
"111",
"105",
"111",
"114",
"130",
"140",
"113",
"111",
"123",
"112",
"108",
"115",
"101",
"118",
"112",
"129",
"91",
"145",
"103",
"113",
"121",
"107",
"113",
"105",
"99",
"102",
"110",
"108",
"110",
"103",
"131",
"127",
"117",
"118",
"105",
"98",
"112",
"109",
"103",
"105",
"117",
"109",
"83",
"110",
"118",
"114",
"99",
"124",
"88",
"75",
"76",
"82",
"97",
"100",
"96",
"100",
"117",
"99",
"108",
"102",
"90",
"99",
"93",
"106",
"99",
"83",
"99",
"96",
"91",
"114",
"91",
"100",
"105",
"82",
"95",
"91",
"95",
"83",
"93",
"100",
"93",
"94",
"94",
"106",
"88",
"102",
"99",
"94",
"93",
"105",
"106",
"96",
"99",
"100",
"81",
"111",
"109",
"94",
"89",
"98",
"90",
"98",
"96",
"93",
"91",
"91",
"87",
"109",
"94",
"98",
"95",
"91",
"87",
"94",
"80",
"93",
"75",
"98",
"78",
"93",
"101",
"80",
"78",
"102",
"96",
"98",
"94",
"106",
"85",
"103",
"82",
"94",
"85",
"102",
"97",
"94",
"90",
"86",
"87",
"100",
"82",
"85",
"108",
"94",
"98",
"113",
"99",
"83",
"103",
"88",
"85",
"77",
"111",
"88",
"80",
"98",
"86",
"101",
"88",
"100",
"80",
"73",
"78",
"91",
"72",
"82",
"72",
"85",
"95",
"99",
"71",
"101",
"88",
"89",
"85",
"85",
"96",
"84",
"85",
"93",
"80",
"97",
"88",
"84",
"95",
"68",
"66",
"85",
"97",
"94",
"63",
"85",
"91",
"109",
"93",
"76",
"94",
"107",
"97",
"102",
"96",
"84",
"95",
"102",
"82",
"103",
"109",
"94",
"83",
"127",
"93",
"103",
"95",
"89",
"110",
"125",
"117",
"124",
"127",
"109",
"119",
"117",
"105",
"154",
"111",
"142",
"127",
"148",
"155",
"155",
"183",
"176",
"185",
"212",
"194",
"245",
"258",
"240",
"253",
"321",
"327",
"325",
"390",
"420",
"423",
"465",
"472",
"452",
"467",
"537",
"502",
"567",
"487",
"565",
"496",
"571",
"467",
"530",
"488",
"526",
"461",
"462",
"419",
"441",
"372",
"425",
"317",
"327",
"327",
"303",
"279",
"295",
"234",
"183",
"183",
"174",
"168",
"179",
"150",
"137",
"143",
"130",
"129",
"143",
"133",
"161",
"140",
"193",
"162",
"203",
"196",
"243",
"256",
"317",
"296",
"354",
"335",
"358",
"345",
"367",
"351",
"321",
"304",
"306",
"298",
"242",
"227",
"218",
"172",
"169",
"129",
"109",
"89",
"103",
"73",
"84",
"72",
"81",
"78",
"100031",
"Channel_info_start",
"Channel : Mg",
"Points : 0",
"Range : 0.000000 - 0.000000",
"Step : 0.010000",
"Channel_info_end",
"Channel_info_start",
"Channel : Al",
"Points : 0",
"Range : 0.000000 - 0.000000",
"Step : 0.010000",
"Channel_info_end",
"Channel_info_start",
"Channel : Si",
"Points : 0",
"Range : 0.000000 - 0.000000",
"Step : 0.010000",
"Channel_info_end",
"Channel_info_start",
"Channel : P ",
"Points : 0",
"Range : 0.000000 - 0.000000",
"Step : 0.010000",
"Channel_info_end",
"Channel_info_start",
"Channel : S ",
"Points : 0",
"Range : 0.000000 - 0.000000",
"Step : 0.010000",
"Channel_info_end",
"Channel_info_start",
"Channel : Cl",
"Points : 0",
"Range : 0.000000 - 0.000000",
"Step : 0.010000",
"Channel_info_end",
"Channel_info_start",
"Channel : K ",
"Points : 0",
"Range : 0.000000 - 0.000000",
"Step : 0.010000",
"Channel_info_end",
"Channel_info_start",
"Channel : Ca",
"Points : 0",
"Range : 0.000000 - 0.000000",
"Step : 0.010000",
"Channel_info_end",
"Channel_info_start",
"Channel : Ti",
"Points : 0",
"Range : 0.000000 - 0.000000",
"Step : 0.010000",
"Channel_info_end",
"Channel_info_start",
"Channel : V ",
"Points : 0",
"Range : 0.000000 - 0.000000",
"Step : 0.010000",
"Channel_info_end",
"Channel_info_start",
"Channel : Cr",
"Points : 0",
"Range : 0.000000 - 0.000000",
"Step : 0.010000",
"Channel_info_end",
"Channel_info_start",
"Channel : Mn",
"Points : 0",
"Range : 0.000000 - 0.000000",
"Step : 0.010000",
"Channel_info_end",
"Channel_info_start",
"Channel : Fe",
"Points : 0",
"Range : 0.000000 - 0.000000",
"Step : 0.010000",
"Channel_info_end",
"Channel_info_start",
"Channel : Cu",
"Points : 0",
"Range : 0.000000 - 0.000000",
"Step : 0.010000",
"Channel_info_end",
"Channel_info_start",
"Channel : Zn",
"Points : 0",
"Range : 0.000000 - 0.000000",
"Step : 0.010000",
"Channel_info_end",
"Channel_info_start",
"Channel : Sr",
"Points : 0",
"Range : 0.000000 - 0.000000",
"Step : 0.010000",
"Channel_info_end",
"Channel_info_start",
"Channel : Pb",
"Points : 0",
"Range : 0.000000 - 0.000000",
"Step : 0.010000",
"Channel_info_end",
"",
"Qualitative Result",
"--------------------------------------------------------------------------------",
"Element :  P , S , Te, K , Ca, Hg, Rh",
"",
"Peak List",
"--------------------------------------------------------------------------------",
"Channel               Line        keV     Net Int.(cps/uA)",
"--------------------------------------------------------------------------------",
"Na                    P Ka         2.00     0.042",
"                      S Ka         2.28     0.022",
"                      TeLL         3.34     0.085",
"                      K Ka         3.34     0.045",
"                      CaKa         3.76     2.989",
"                      CaKb         4.04     0.418",
"                      TeLb1        4.04     1.453",
"                      TeLb2        4.30     0.351",
"                      TeLg1        4.58     0.169",
"                      TeLg2        4.82     0.125",
"                      HgLa        10.01     0.028",
"                      RhKaC       19.24     0.135",
"                      ----        19.51     0.038",
"                      RhKa        20.08     0.096",
"--------------------------------------------------------------------------------",
"",
"Quantitative Result",
"--------------------------------------------------------------------------------",
"Analyte               Result             Std.Dev. Proc.-Calc. Line Intensity(cps/uA)",
"--------------------------------------------------------------------------------",
"====[No. 1 Layer]====< Layer1               >===============================",
"Layer1                   0.000 ug/cm2    -------- Flux       -------- --------",