File: inputs/edxCalibration/edx_raw/2010-06/Te 15768.20100626142519.csv
"Sample    : Te 15768",
"Operator  : thiago",
"Comment  : cubatao-g-policarbonato",
"Group     : kerr2007ag180cal_lt",
"Date       : 2010-06-26 14:21:07",
"",
"Mesurement Condition",
"------------------------------------------------------------------------------------",
"Instrument : 700HS2   Atmosphere : Vac.   Collimator : 10(mm)   Spin : No",
"------------------------------------------------------------------------------------",
"Analyte               TG kV   uA      FI Acq.(keV)  Anal.(keV)  Time(sec)     DT(%)",
"------------------------------------------------------------------------------------",
"Na                    Rh 50  360-Auto Al  0 - 20    0.8 - 1.2   Live -  179   15",
"",
"<Profile>",
"Channel_info_start",
"Channel : Na",
"Points : 2048",
"Range : 0.000000 - 20.48",
"Step : 0.010000",
"Channel_info_end",
"0",
"0",
"0",
"0",
"0",
"0",
"0",
"0",
"0",
"0",
"0",
"0",
"0",
"0",
"2",
"32",
"37",
"36",
"40",
"38",
"37",
"37",
"46",
"32",
"37",
"36",
"49",
"47",
"38",
"34",
"34",
"44",
"37",
"29",
"37",
"28",
"34",
"46",
"48",
"37",
"37",
"39",
"41",
"48",
"32",
"26",
"28",
"47",
"45",
"45",
"39",
"34",
"45",
"50",
"44",
"45",
"31",
"27",
"45",
"44",
"35",
"44",
"42",
"40",
"41",
"36",
"35",
"34",
"41",
"44",
"50",
"47",
"42",
"57",
"47",
"49",
"70",
"61",
"50",
"53",
"63",
"66",
"59",
"58",
"45",
"63",
"69",
"63",
"69",
"53",
"60",
"59",
"51",
"56",
"58",
"83",
"97",
"110",
"142",
"198",
"251",
"281",
"289",
"186",
"150",
"100",
"80",
"88",
"70",
"83",
"96",
"121",
"131",
"156",
"167",
"174",
"171",
"150",
"123",
"94",
"82",
"73",
"64",
"61",
"74",
"51",
"66",
"69",
"92",
"87",
"80",
"75",
"85",
"92",
"69",
"70",
"58",
"57",
"68",
"73",
"71",
"81",
"59",
"72",
"72",
"74",
"57",
"58",
"72",
"52",
"58",
"81",
"63",
"72",
"93",
"84",
"102",
"81",
"99",
"103",
"150",
"157",
"264",
"369",
"508",
"660",
"735",
"807",
"694",
"594",
"473",
"378",
"281",
"231",
"228",
"224",
"291",
"356",
"435",
"553",
"794",
"1096",
"1657",
"2770",
"4443",
"6482",
"9503",
"11766",
"13843",
"13894",
"12427",
"9768",
"6826",
"4070",
"2472",
"1531",
"1549",
"2169",
"3438",
"5131",
"6887",
"8048",
"9197",
"8585",
"7955",
"6694",
"5482",
"3966",
"3053",
"2032",
"1647",
"1393",
"1472",
"1644",
"1842",
"1914",
"1952",
"1747",
"1410",
"1012",
"641",
"491",
"390",
"343",
"456",
"573",
"763",
"973",
"1000",
"1011",
"1010",
"854",
"630",
"451",
"361",
"272",
"317",
"376",
"488",
"617",
"712",
"660",
"697",
"625",
"535",
"364",
"297",
"210",
"151",
"125",
"109",
"78",
"76",
"62",
"69",
"62",
"75",
"74",
"54",
"62",
"74",
"84",
"102",
"94",
"83",
"101",
"98",
"89",
"99",
"109",
"115",
"97",
"108",
"115",
"88",
"99",
"83",
"88",
"85",
"83",
"87",
"101",
"90",
"65",
"106",
"96",
"74",
"93",
"94",
"103",
"87",
"100",
"110",
"102",
"108",
"117",
"105",
"107",
"133",
"111",
"126",
"117",
"124",
"122",
"166",
"114",
"130",
"147",
"112",
"130",
"137",
"149",
"147",
"132",
"151",
"138",
"157",
"151",
"147",
"141",
"155",
"138",
"148",
"130",
"156",
"141",
"138",
"141",
"129",
"127",
"141",
"121",
"118",
"145",
"127",
"133",
"131",
"148",
"141",
"163",
"142",
"145",
"130",
"146",
"144",
"137",
"147",
"158",
"142",
"145",
"160",
"162",
"137",
"142",
"164",
"173",
"174",
"151",
"170",
"162",
"150",
"175",
"169",
"156",
"178",
"181",
"181",
"168",
"187",
"199",
"195",
"172",
"171",
"164",
"179",
"179",
"172",
"174",
"153",
"169",
"150",
"172",
"163",
"168",
"176",
"168",
"171",
"157",
"171",
"163",
"194",
"206",
"186",
"186",
"195",
"206",
"221",
"178",
"212",
"219",
"217",
"197",
"192",
"245",
"184",
"202",
"214",
"191",
"181",
"139",
"183",
"181",
"176",
"169",
"136",
"159",
"161",
"162",
"149",
"133",
"147",
"136",
"133",
"171",
"168",
"180",
"188",
"193",
"202",
"212",
"237",
"235",
"215",
"225",
"218",
"216",
"218",
"208",
"215",
"183",
"170",
"167",
"187",
"174",
"175",
"144",
"168",
"151",
"170",
"194",
"160",
"190",
"143",
"172",
"154",
"174",
"162",
"164",
"182",
"164",
"183",
"175",
"176",
"171",
"163",
"173",
"163",
"163",
"184",
"166",
"170",
"171",
"195",
"178",
"163",
"180",
"180",
"158",
"151",
"178",
"150",
"145",
"163",
"143",
"190",
"149",
"146",
"155",
"158",
"173",
"166",
"190",
"159",
"182",
"182",
"211",
"200",
"218",
"244",
"223",
"240",
"236",
"236",
"228",
"172",
"179",
"179",
"171",
"157",
"157",
"164",
"154",
"154",
"126",
"172",
"167",
"144",
"154",
"164",
"156",
"148",
"139",
"157",
"148",
"167",
"161",
"139",
"153",
"150",
"185",
"138",
"143",
"160",
"139",
"164",
"131",
"150",
"148",
"160",
"174",
"160",
"163",
"131",
"171",
"163",
"158",
"157",
"134",
"163",
"133",
"136",
"154",
"124",
"153",
"160",
"132",
"158",
"154",
"143",
"144",
"166",
"159",
"138",
"175",
"144",
"146",
"138",
"171",
"169",
"158",
"182",
"162",
"143",
"142",
"151",
"145",
"171",
"133",
"175",
"160",
"130",
"157",
"137",
"137",
"149",
"173",
"171",
"170",
"184",
"178",
"186",
"170",
"215",
"170",
"188",
"197",
"192",
"174",
"160",
"153",
"170",
"155",
"155",
"157",
"151",
"132",
"155",
"141",
"144",
"125",
"135",
"130",
"147",
"137",
"146",
"139",
"124",
"146",
"153",
"135",
"137",
"141",
"131",
"143",
"144",
"132",
"138",
"141",
"125",
"124",
"158",
"134",
"158",
"122",
"146",
"118",
"156",
"158",
"143",
"103",
"132",
"113",
"129",
"129",
"132",
"134",
"144",
"132",
"129",
"151",
"139",
"145",
"148",
"112",
"118",
"110",
"135",
"134",
"132",
"124",
"136",
"124",
"129",
"115",
"110",
"133",
"119",
"113",
"100",
"123",
"110",
"138",
"110",
"102",
"103",
"121",
"120",
"139",
"126",
"121",
"129",
"102",
"147",
"114",
"106",
"145",
"118",
"129",
"127",
"124",
"127",
"119",
"134",
"133",
"132",
"136",
"129",
"127",
"124",
"111",
"110",
"114",
"131",
"105",
"109",
"108",
"118",
"108",
"114",
"110",
"115",
"118",
"118",
"112",
"107",
"108",
"117",
"98",
"124",
"122",
"123",
"102",
"124",
"111",
"135",
"122",
"98",
"100",
"106",
"106",
"126",
"107",
"115",
"114",
"113",
"124",
"117",
"98",
"109",
"109",
"121",
"117",
"96",
"92",
"93",
"119",
"103",
"118",
"119",
"112",
"107",
"100",
"115",
"80",
"109",
"118",
"96",
"99",
"97",
"94",
"119",
"112",
"107",
"97",
"109",
"96",
"101",
"81",
"129",
"77",
"93",
"73",
"101",
"88",
"107",
"94",
"109",
"96",
"113",
"98",
"106",
"109",
"100",
"78",
"95",
"81",
"85",
"93",
"108",
"96",
"87",
"72",
"95",
"101",
"87",
"90",
"106",
"92",
"105",
"89",
"90",
"101",
"90",
"111",
"110",
"89",
"93",
"87",
"86",
"81",
"94",
"86",
"97",
"84",
"95",
"92",
"82",
"90",
"95",
"85",
"98",
"110",
"82",
"89",
"113",
"106",
"93",
"106",
"78",
"84",
"103",
"89",
"87",
"92",
"71",
"89",
"89",
"76",
"87",
"87",
"95",
"85",
"98",
"84",
"107",
"96",
"129",
"86",
"98",
"92",
"85",
"74",
"88",
"87",
"86",
"86",
"94",
"85",
"94",
"107",
"103",
"82",
"78",
"86",
"88",
"93",
"80",
"96",
"97",
"86",
"94",
"87",
"93",
"72",
"97",
"89",
"77",
"103",
"99",
"106",
"94",
"81",
"97",
"94",
"86",
"93",
"108",
"95",
"88",
"81",
"87",
"99",
"81",
"94",
"80",
"102",
"102",
"97",
"99",
"85",
"90",
"95",
"88",
"73",
"90",
"95",
"112",
"87",
"97",
"94",
"114",
"95",
"96",
"121",
"120",
"100",
"114",
"93",
"111",
"105",
"92",
"88",
"113",
"103",
"113",
"102",
"106",
"135",
"156",
"125",
"136",
"146",
"151",
"133",
"180",
"167",
"156",
"161",
"161",
"175",
"224",
"214",
"233",
"244",
"286",
"316",
"318",
"350",
"398",
"343",
"425",
"397",
"468",
"485",
"471",
"515",
"549",
"558",
"496",
"522",
"636",
"544",
"578",
"474",
"539",
"468",
"515",
"463",
"441",
"401",
"425",
"368",
"374",
"296",
"328",
"279",
"302",
"231",
"222",
"220",
"219",
"184",
"170",
"167",
"159",
"144",
"135",
"114",
"157",
"134",
"134",
"144",
"154",
"179",
"164",
"205",
"227",
"215",
"276",
"288",
"328",
"339",
"354",
"425",
"400",
"356",
"375",
"342",
"368",
"291",
"269",
"270",
"224",
"170",
"180",
"136",
"130",
"103",
"106",
"81",
"84",
"90",
"81",
"68",
"100799",
"Channel_info_start",
"Channel : Mg",
"Points : 0",
"Range : 0.000000 - 0.000000",
"Step : 0.010000",
"Channel_info_end",
"Channel_info_start",
"Channel : Al",
"Points : 0",
"Range : 0.000000 - 0.000000",
"Step : 0.010000",
"Channel_info_end",
"Channel_info_start",
"Channel : Si",
"Points : 0",
"Range : 0.000000 - 0.000000",
"Step : 0.010000",
"Channel_info_end",
"Channel_info_start",
"Channel : P ",
"Points : 0",
"Range : 0.000000 - 0.000000",
"Step : 0.010000",
"Channel_info_end",
"Channel_info_start",
"Channel : S ",
"Points : 0",
"Range : 0.000000 - 0.000000",
"Step : 0.010000",
"Channel_info_end",
"Channel_info_start",
"Channel : Cl",
"Points : 0",
"Range : 0.000000 - 0.000000",
"Step : 0.010000",
"Channel_info_end",
"Channel_info_start",
"Channel : K ",
"Points : 0",
"Range : 0.000000 - 0.000000",
"Step : 0.010000",
"Channel_info_end",
"Channel_info_start",
"Channel : Ca",
"Points : 0",
"Range : 0.000000 - 0.000000",
"Step : 0.010000",
"Channel_info_end",
"Channel_info_start",
"Channel : Ti",
"Points : 0",
"Range : 0.000000 - 0.000000",
"Step : 0.010000",
"Channel_info_end",
"Channel_info_start",
"Channel : V ",
"Points : 0",
"Range : 0.000000 - 0.000000",
"Step : 0.010000",
"Channel_info_end",
"Channel_info_start",
"Channel : Cr",
"Points : 0",
"Range : 0.000000 - 0.000000",
"Step : 0.010000",
"Channel_info_end",
"Channel_info_start",
"Channel : Mn",
"Points : 0",
"Range : 0.000000 - 0.000000",
"Step : 0.010000",
"Channel_info_end",
"Channel_info_start",
"Channel : Fe",
"Points : 0",
"Range : 0.000000 - 0.000000",
"Step : 0.010000",
"Channel_info_end",
"Channel_info_start",
"Channel : Cu",
"Points : 0",
"Range : 0.000000 - 0.000000",
"Step : 0.010000",
"Channel_info_end",
"Channel_info_start",
"Channel : Zn",
"Points : 0",
"Range : 0.000000 - 0.000000",
"Step : 0.010000",
"Channel_info_end",
"Channel_info_start",
"Channel : Sr",
"Points : 0",
"Range : 0.000000 - 0.000000",
"Step : 0.010000",
"Channel_info_end",
"Channel_info_start",
"Channel : Pb",
"Points : 0",
"Range : 0.000000 - 0.000000",
"Step : 0.010000",
"Channel_info_end",
"",
"Qualitative Result",
"--------------------------------------------------------------------------------",
"Element :  P , S , Te, K , Ru",
"",
"Peak List",
"--------------------------------------------------------------------------------",
"Channel               Line        keV     Net Int.(cps/uA)",
"--------------------------------------------------------------------------------",
"Na                    P Ka         2.03     0.040",
"                      S Ka         2.28     0.022",
"                      TeLL         3.34     0.089",
"                      K Ka         3.34     0.051",
"                      TeLa         3.77     2.965",
"                      TeLb1        4.04     1.905",
"                      TeLb2        4.31     0.336",
"                      TeLg1        4.58     0.160",
"                      TeLg2        4.83     0.108",
"                      ----         9.99     0.027",
"                      RuKa        19.21     0.148",
"                      ----        19.51     0.049",
"--------------------------------------------------------------------------------",
"",
"Quantitative Result",
"--------------------------------------------------------------------------------",
"Analyte               Result             Std.Dev. Proc.-Calc. Line Intensity(cps/uA)",
"--------------------------------------------------------------------------------",
"====[No. 1 Layer]====< Layer1               >===============================",
"Layer1                   0.000 ug/cm2    -------- Flux       -------- --------",