File: inputs/edxCalibration/edx_raw/2010-06/Te 15768.20100526003448.csv
"Sample    : Te 15768",
"Operator  : luisf",
"Comment  : cubatao-g-policarbonato",
"Group     : kerr2007ag180cal_lt",
"Date       : 2010-05-26 00:30:37",
"",
"Mesurement Condition",
"------------------------------------------------------------------------------------",
"Instrument : 700HS2   Atmosphere : Vac.   Collimator : 10(mm)   Spin : No",
"------------------------------------------------------------------------------------",
"Analyte               TG kV   uA      FI Acq.(keV)  Anal.(keV)  Time(sec)     DT(%)",
"------------------------------------------------------------------------------------",
"Na                    Rh 50  360-Auto Al  0 - 20    0.8 - 1.2   Live -  179   15",
"",
"<Profile>",
"Channel_info_start",
"Channel : Na",
"Points : 2048",
"Range : 0.000000 - 20.48",
"Step : 0.010000",
"Channel_info_end",
"0",
"0",
"0",
"0",
"0",
"0",
"0",
"0",
"0",
"0",
"0",
"0",
"0",
"0",
"0",
"14",
"37",
"36",
"34",
"36",
"32",
"35",
"53",
"41",
"36",
"42",
"48",
"36",
"36",
"30",
"26",
"38",
"26",
"45",
"42",
"40",
"33",
"37",
"34",
"37",
"36",
"41",
"52",
"47",
"53",
"41",
"44",
"51",
"39",
"44",
"41",
"44",
"39",
"39",
"39",
"44",
"57",
"38",
"40",
"40",
"44",
"36",
"45",
"34",
"30",
"47",
"35",
"44",
"40",
"44",
"39",
"36",
"41",
"51",
"51",
"40",
"52",
"35",
"54",
"51",
"48",
"56",
"42",
"46",
"44",
"63",
"57",
"59",
"51",
"51",
"60",
"52",
"59",
"53",
"64",
"63",
"106",
"108",
"172",
"207",
"211",
"279",
"237",
"186",
"148",
"118",
"97",
"83",
"85",
"72",
"125",
"125",
"144",
"152",
"164",
"160",
"159",
"140",
"115",
"100",
"100",
"69",
"78",
"60",
"68",
"56",
"77",
"64",
"105",
"103",
"86",
"89",
"111",
"78",
"91",
"71",
"73",
"61",
"60",
"54",
"65",
"73",
"58",
"49",
"79",
"54",
"62",
"54",
"54",
"68",
"74",
"90",
"74",
"75",
"72",
"103",
"79",
"108",
"110",
"126",
"134",
"191",
"285",
"382",
"552",
"682",
"716",
"880",
"698",
"669",
"507",
"321",
"274",
"218",
"242",
"230",
"292",
"367",
"433",
"623",
"789",
"1143",
"1711",
"2766",
"4563",
"6981",
"10006",
"12037",
"14156",
"13585",
"12421",
"9306",
"6561",
"3875",
"2324",
"1635",
"1639",
"2319",
"3569",
"5307",
"6953",
"8273",
"8876",
"8414",
"8076",
"6425",
"5210",
"3879",
"2822",
"1977",
"1574",
"1356",
"1409",
"1628",
"1891",
"1993",
"1876",
"1724",
"1437",
"1026",
"718",
"416",
"395",
"412",
"458",
"580",
"788",
"916",
"1021",
"1041",
"989",
"826",
"601",
"478",
"361",
"296",
"289",
"370",
"488",
"576",
"698",
"661",
"675",
"562",
"467",
"330",
"310",
"217",
"160",
"135",
"91",
"86",
"70",
"84",
"79",
"59",
"63",
"65",
"65",
"61",
"101",
"77",
"83",
"90",
"76",
"102",
"89",
"93",
"106",
"94",
"101",
"99",
"103",
"97",
"99",
"86",
"96",
"120",
"78",
"78",
"86",
"95",
"93",
"75",
"88",
"86",
"68",
"97",
"94",
"72",
"100",
"110",
"108",
"102",
"105",
"93",
"124",
"97",
"114",
"131",
"103",
"126",
"130",
"137",
"112",
"132",
"132",
"132",
"134",
"139",
"132",
"159",
"127",
"128",
"120",
"158",
"143",
"146",
"170",
"156",
"140",
"159",
"131",
"161",
"127",
"133",
"149",
"147",
"131",
"123",
"154",
"112",
"106",
"127",
"157",
"133",
"127",
"137",
"156",
"130",
"150",
"119",
"148",
"127",
"156",
"158",
"142",
"157",
"157",
"135",
"157",
"157",
"179",
"140",
"156",
"149",
"143",
"150",
"182",
"152",
"164",
"148",
"161",
"170",
"185",
"160",
"211",
"172",
"180",
"164",
"171",
"181",
"175",
"177",
"173",
"176",
"177",
"194",
"165",
"185",
"180",
"148",
"157",
"144",
"181",
"162",
"161",
"173",
"191",
"148",
"195",
"184",
"192",
"179",
"197",
"183",
"219",
"196",
"179",
"219",
"226",
"219",
"221",
"235",
"216",
"207",
"221",
"172",
"170",
"175",
"171",
"159",
"186",
"147",
"161",
"158",
"155",
"179",
"151",
"167",
"164",
"168",
"148",
"160",
"168",
"167",
"189",
"209",
"219",
"198",
"224",
"228",
"246",
"237",
"183",
"217",
"204",
"159",
"203",
"175",
"174",
"169",
"167",
"160",
"162",
"179",
"179",
"180",
"168",
"168",
"170",
"169",
"179",
"173",
"165",
"152",
"149",
"171",
"188",
"175",
"170",
"160",
"157",
"167",
"157",
"157",
"176",
"142",
"194",
"138",
"157",
"147",
"167",
"164",
"168",
"172",
"179",
"163",
"183",
"156",
"169",
"143",
"160",
"138",
"154",
"133",
"157",
"162",
"165",
"157",
"173",
"174",
"177",
"183",
"203",
"177",
"220",
"217",
"246",
"229",
"214",
"222",
"232",
"223",
"155",
"183",
"193",
"144",
"176",
"171",
"159",
"144",
"159",
"140",
"128",
"146",
"165",
"172",
"151",
"144",
"152",
"150",
"126",
"160",
"157",
"147",
"167",
"173",
"155",
"161",
"149",
"149",
"155",
"174",
"157",
"158",
"144",
"144",
"152",
"174",
"152",
"136",
"174",
"165",
"145",
"152",
"139",
"148",
"144",
"158",
"123",
"148",
"145",
"149",
"134",
"162",
"149",
"154",
"146",
"130",
"158",
"146",
"145",
"136",
"126",
"159",
"152",
"133",
"143",
"133",
"140",
"152",
"151",
"139",
"138",
"139",
"146",
"132",
"146",
"114",
"127",
"147",
"146",
"151",
"167",
"154",
"167",
"206",
"177",
"170",
"204",
"194",
"192",
"188",
"177",
"164",
"211",
"165",
"162",
"186",
"165",
"154",
"155",
"152",
"167",
"120",
"174",
"154",
"137",
"155",
"133",
"136",
"131",
"152",
"145",
"130",
"131",
"128",
"134",
"119",
"111",
"158",
"133",
"128",
"131",
"134",
"136",
"134",
"147",
"137",
"144",
"120",
"125",
"114",
"157",
"124",
"137",
"133",
"125",
"118",
"134",
"106",
"109",
"114",
"133",
"119",
"143",
"124",
"131",
"117",
"139",
"122",
"147",
"122",
"122",
"128",
"143",
"130",
"126",
"114",
"135",
"117",
"112",
"122",
"127",
"137",
"118",
"122",
"132",
"109",
"133",
"148",
"134",
"137",
"134",
"103",
"131",
"122",
"128",
"125",
"123",
"113",
"138",
"113",
"126",
"143",
"117",
"115",
"133",
"132",
"115",
"140",
"136",
"112",
"108",
"118",
"122",
"122",
"139",
"117",
"134",
"105",
"119",
"143",
"122",
"115",
"125",
"118",
"97",
"96",
"105",
"111",
"137",
"113",
"103",
"117",
"124",
"95",
"95",
"108",
"110",
"108",
"89",
"81",
"98",
"88",
"110",
"111",
"130",
"117",
"90",
"98",
"103",
"94",
"102",
"103",
"114",
"101",
"138",
"103",
"119",
"106",
"110",
"130",
"103",
"105",
"111",
"112",
"95",
"102",
"101",
"117",
"102",
"108",
"106",
"102",
"98",
"100",
"102",
"107",
"122",
"111",
"105",
"101",
"98",
"89",
"98",
"105",
"106",
"87",
"101",
"101",
"95",
"114",
"99",
"88",
"98",
"113",
"107",
"89",
"117",
"84",
"103",
"89",
"82",
"107",
"107",
"98",
"102",
"93",
"99",
"95",
"72",
"75",
"111",
"101",
"102",
"107",
"107",
"85",
"107",
"86",
"103",
"89",
"93",
"84",
"95",
"91",
"93",
"84",
"63",
"76",
"79",
"90",
"98",
"88",
"91",
"86",
"83",
"83",
"86",
"102",
"63",
"82",
"115",
"85",
"90",
"74",
"94",
"93",
"82",
"87",
"85",
"90",
"84",
"86",
"79",
"98",
"85",
"81",
"84",
"77",
"88",
"74",
"108",
"96",
"88",
"87",
"90",
"87",
"87",
"87",
"91",
"87",
"83",
"83",
"95",
"79",
"75",
"99",
"88",
"81",
"95",
"82",
"112",
"84",
"90",
"78",
"88",
"87",
"93",
"84",
"106",
"85",
"98",
"76",
"86",
"83",
"84",
"99",
"98",
"75",
"81",
"93",
"89",
"73",
"79",
"83",
"70",
"85",
"98",
"100",
"93",
"95",
"84",
"78",
"91",
"101",
"90",
"91",
"82",
"73",
"97",
"90",
"78",
"72",
"101",
"108",
"117",
"102",
"100",
"93",
"101",
"103",
"120",
"90",
"121",
"94",
"117",
"103",
"108",
"114",
"115",
"103",
"134",
"96",
"125",
"119",
"122",
"147",
"152",
"125",
"130",
"146",
"147",
"144",
"154",
"183",
"203",
"203",
"221",
"230",
"243",
"253",
"307",
"292",
"342",
"367",
"335",
"373",
"434",
"456",
"457",
"485",
"496",
"547",
"560",
"512",
"518",
"537",
"578",
"534",
"513",
"519",
"563",
"462",
"475",
"421",
"425",
"436",
"427",
"352",
"333",
"269",
"322",
"287",
"279",
"213",
"220",
"179",
"211",
"197",
"179",
"144",
"159",
"127",
"148",
"124",
"122",
"136",
"133",
"157",
"182",
"182",
"195",
"203",
"225",
"252",
"283",
"289",
"350",
"316",
"348",
"365",
"392",
"353",
"354",
"360",
"347",
"307",
"268",
"233",
"210",
"170",
"139",
"134",
"125",
"125",
"81",
"90",
"88",
"64",
"85",
"71",
"100006",
"Channel_info_start",
"Channel : Mg",
"Points : 0",
"Range : 0.000000 - 0.000000",
"Step : 0.010000",
"Channel_info_end",
"Channel_info_start",
"Channel : Al",
"Points : 0",
"Range : 0.000000 - 0.000000",
"Step : 0.010000",
"Channel_info_end",
"Channel_info_start",
"Channel : Si",
"Points : 0",
"Range : 0.000000 - 0.000000",
"Step : 0.010000",
"Channel_info_end",
"Channel_info_start",
"Channel : P ",
"Points : 0",
"Range : 0.000000 - 0.000000",
"Step : 0.010000",
"Channel_info_end",
"Channel_info_start",
"Channel : S ",
"Points : 0",
"Range : 0.000000 - 0.000000",
"Step : 0.010000",
"Channel_info_end",
"Channel_info_start",
"Channel : Cl",
"Points : 0",
"Range : 0.000000 - 0.000000",
"Step : 0.010000",
"Channel_info_end",
"Channel_info_start",
"Channel : K ",
"Points : 0",
"Range : 0.000000 - 0.000000",
"Step : 0.010000",
"Channel_info_end",
"Channel_info_start",
"Channel : Ca",
"Points : 0",
"Range : 0.000000 - 0.000000",
"Step : 0.010000",
"Channel_info_end",
"Channel_info_start",
"Channel : Ti",
"Points : 0",
"Range : 0.000000 - 0.000000",
"Step : 0.010000",
"Channel_info_end",
"Channel_info_start",
"Channel : V ",
"Points : 0",
"Range : 0.000000 - 0.000000",
"Step : 0.010000",
"Channel_info_end",
"Channel_info_start",
"Channel : Cr",
"Points : 0",
"Range : 0.000000 - 0.000000",
"Step : 0.010000",
"Channel_info_end",
"Channel_info_start",
"Channel : Mn",
"Points : 0",
"Range : 0.000000 - 0.000000",
"Step : 0.010000",
"Channel_info_end",
"Channel_info_start",
"Channel : Fe",
"Points : 0",
"Range : 0.000000 - 0.000000",
"Step : 0.010000",
"Channel_info_end",
"Channel_info_start",
"Channel : Cu",
"Points : 0",
"Range : 0.000000 - 0.000000",
"Step : 0.010000",
"Channel_info_end",
"Channel_info_start",
"Channel : Zn",
"Points : 0",
"Range : 0.000000 - 0.000000",
"Step : 0.010000",
"Channel_info_end",
"Channel_info_start",
"Channel : Sr",
"Points : 0",
"Range : 0.000000 - 0.000000",
"Step : 0.010000",
"Channel_info_end",
"Channel_info_start",
"Channel : Pb",
"Points : 0",
"Range : 0.000000 - 0.000000",
"Step : 0.010000",
"Channel_info_end",
"",
"Qualitative Result",
"--------------------------------------------------------------------------------",
"Element :  P , S , Te, K , Ca, Ge, Ru",
"",
"Peak List",
"--------------------------------------------------------------------------------",
"Channel               Line        keV     Net Int.(cps/uA)",
"--------------------------------------------------------------------------------",
"Na                    P Ka         2.02     0.039",
"                      S Ka         2.31     0.022",
"                      TeLL         3.34     0.085",
"                      K Ka         3.34     0.058",
"                      CaKa         3.76     2.959",
"                      CaKb         4.04     0.414",
"                      TeLb1        4.04     1.449",
"                      TeLb2        4.30     0.351",
"                      TeLg1        4.58     0.161",
"                      TeLg2        4.81     0.114",
"                      GeKa         9.96     0.027",
"                      RuKa        19.20     0.137",
"                      ----        19.52     0.035",
"                      ----        19.99     0.074",
"--------------------------------------------------------------------------------",
"",
"Quantitative Result",
"--------------------------------------------------------------------------------",
"Analyte               Result             Std.Dev. Proc.-Calc. Line Intensity(cps/uA)",
"--------------------------------------------------------------------------------",
"====[No. 1 Layer]====< Layer1               >===============================",
"Layer1                   0.000 ug/cm2    -------- Flux       -------- --------",