File: inputs/edxCalibration/edx_raw/2010-06/Ti 15755 .20100610234805.csv
"Sample    : Ti 15755 ",
"Operator  : thiago",
"Comment  : cubatao-g-policarbonato",
"Group     : kerr2007ag180cal_lt",
"Date       : 2010-06-10 23:44:05",
"",
"Mesurement Condition",
"------------------------------------------------------------------------------------",
"Instrument : 700HS2   Atmosphere : Vac.   Collimator : 10(mm)   Spin : No",
"------------------------------------------------------------------------------------",
"Analyte               TG kV   uA      FI Acq.(keV)  Anal.(keV)  Time(sec)     DT(%)",
"------------------------------------------------------------------------------------",
"Na                    Rh 50  268-Auto Al  0 - 20    0.8 - 1.2   Live -  179   13",
"",
"<Profile>",
"Channel_info_start",
"Channel : Na",
"Points : 2048",
"Range : 0.000000 - 20.48",
"Step : 0.010000",
"Channel_info_end",
"0",
"0",
"0",
"0",
"0",
"0",
"0",
"0",
"0",
"0",
"0",
"0",
"0",
"0",
"0",
"6",
"11",
"15",
"14",
"15",
"21",
"14",
"16",
"13",
"14",
"21",
"15",
"13",
"15",
"13",
"16",
"12",
"18",
"16",
"13",
"15",
"15",
"12",
"17",
"18",
"22",
"17",
"11",
"12",
"11",
"23",
"14",
"19",
"13",
"13",
"17",
"10",
"8",
"30",
"16",
"22",
"12",
"18",
"21",
"17",
"13",
"21",
"16",
"14",
"13",
"16",
"23",
"11",
"21",
"15",
"22",
"17",
"18",
"16",
"16",
"26",
"24",
"22",
"11",
"30",
"17",
"18",
"32",
"16",
"16",
"31",
"32",
"34",
"41",
"27",
"28",
"26",
"30",
"30",
"34",
"35",
"32",
"54",
"53",
"59",
"68",
"69",
"54",
"38",
"35",
"27",
"29",
"28",
"25",
"24",
"16",
"23",
"26",
"26",
"36",
"25",
"31",
"42",
"28",
"34",
"21",
"27",
"24",
"31",
"23",
"17",
"29",
"35",
"28",
"25",
"30",
"44",
"52",
"64",
"92",
"131",
"200",
"247",
"252",
"248",
"238",
"160",
"96",
"78",
"37",
"38",
"44",
"24",
"36",
"30",
"34",
"25",
"22",
"31",
"44",
"42",
"53",
"56",
"63",
"66",
"58",
"41",
"38",
"42",
"41",
"37",
"39",
"19",
"23",
"30",
"29",
"32",
"27",
"37",
"49",
"72",
"62",
"76",
"114",
"174",
"250",
"332",
"477",
"537",
"653",
"674",
"576",
"459",
"345",
"238",
"182",
"150",
"132",
"148",
"114",
"142",
"133",
"164",
"144",
"161",
"203",
"173",
"168",
"170",
"152",
"137",
"142",
"129",
"158",
"167",
"146",
"156",
"174",
"195",
"238",
"292",
"406",
"683",
"1394",
"2826",
"5699",
"9710",
"16364",
"22452",
"29320",
"30912",
"30836",
"26495",
"21245",
"14165",
"8913",
"4806",
"2362",
"1019",
"482",
"270",
"226",
"222",
"221",
"376",
"610",
"920",
"1464",
"2113",
"2975",
"3535",
"3964",
"3826",
"3431",
"2640",
"2007",
"1259",
"773",
"402",
"208",
"115",
"82",
"55",
"52",
"43",
"44",
"34",
"42",
"43",
"41",
"44",
"58",
"47",
"42",
"52",
"50",
"61",
"53",
"55",
"64",
"55",
"44",
"36",
"41",
"48",
"36",
"43",
"41",
"51",
"51",
"49",
"62",
"56",
"57",
"65",
"52",
"55",
"63",
"67",
"43",
"65",
"43",
"72",
"61",
"68",
"68",
"51",
"54",
"78",
"72",
"77",
"69",
"75",
"68",
"61",
"81",
"87",
"70",
"64",
"101",
"84",
"88",
"114",
"81",
"92",
"98",
"95",
"95",
"92",
"103",
"94",
"83",
"101",
"83",
"84",
"76",
"94",
"92",
"72",
"88",
"83",
"87",
"95",
"83",
"87",
"82",
"91",
"91",
"78",
"79",
"79",
"82",
"79",
"101",
"80",
"105",
"90",
"91",
"97",
"72",
"90",
"96",
"84",
"96",
"81",
"85",
"76",
"93",
"87",
"106",
"72",
"92",
"83",
"81",
"87",
"84",
"99",
"95",
"88",
"82",
"81",
"80",
"96",
"89",
"80",
"101",
"95",
"94",
"82",
"92",
"90",
"94",
"88",
"94",
"94",
"82",
"118",
"83",
"81",
"105",
"83",
"88",
"121",
"108",
"109",
"121",
"134",
"108",
"97",
"109",
"111",
"112",
"101",
"95",
"111",
"92",
"112",
"93",
"104",
"109",
"93",
"93",
"92",
"108",
"89",
"103",
"110",
"85",
"104",
"98",
"118",
"110",
"136",
"135",
"137",
"141",
"145",
"138",
"149",
"148",
"131",
"116",
"105",
"129",
"106",
"93",
"99",
"94",
"114",
"103",
"102",
"108",
"115",
"125",
"131",
"117",
"149",
"132",
"123",
"102",
"91",
"102",
"88",
"82",
"102",
"79",
"104",
"118",
"109",
"92",
"89",
"95",
"96",
"94",
"85",
"91",
"118",
"112",
"90",
"116",
"95",
"111",
"94",
"95",
"102",
"102",
"106",
"108",
"91",
"83",
"88",
"104",
"92",
"71",
"92",
"83",
"76",
"71",
"95",
"98",
"80",
"101",
"76",
"81",
"91",
"96",
"87",
"96",
"87",
"91",
"92",
"87",
"70",
"95",
"89",
"83",
"75",
"87",
"69",
"90",
"81",
"105",
"79",
"85",
"96",
"91",
"78",
"98",
"76",
"84",
"91",
"91",
"96",
"79",
"83",
"82",
"81",
"91",
"93",
"96",
"92",
"92",
"79",
"85",
"104",
"87",
"87",
"97",
"79",
"110",
"93",
"98",
"82",
"90",
"77",
"76",
"98",
"84",
"83",
"93",
"97",
"101",
"107",
"118",
"92",
"85",
"99",
"104",
"90",
"108",
"80",
"90",
"89",
"69",
"85",
"71",
"95",
"77",
"76",
"81",
"78",
"98",
"83",
"92",
"76",
"82",
"75",
"77",
"87",
"85",
"71",
"84",
"84",
"105",
"78",
"95",
"102",
"89",
"88",
"96",
"70",
"89",
"94",
"82",
"75",
"87",
"65",
"76",
"79",
"76",
"72",
"67",
"70",
"72",
"89",
"67",
"75",
"72",
"74",
"72",
"70",
"76",
"98",
"70",
"87",
"95",
"76",
"80",
"83",
"96",
"96",
"84",
"78",
"84",
"64",
"70",
"71",
"78",
"99",
"75",
"87",
"71",
"81",
"69",
"72",
"76",
"64",
"61",
"83",
"74",
"76",
"74",
"65",
"85",
"97",
"63",
"81",
"90",
"85",
"70",
"63",
"80",
"93",
"64",
"64",
"81",
"71",
"78",
"77",
"77",
"75",
"78",
"88",
"74",
"82",
"65",
"70",
"65",
"67",
"75",
"71",
"67",
"80",
"80",
"67",
"77",
"56",
"84",
"68",
"92",
"85",
"67",
"84",
"76",
"64",
"75",
"64",
"71",
"62",
"82",
"66",
"71",
"59",
"72",
"74",
"71",
"82",
"81",
"78",
"77",
"58",
"79",
"65",
"58",
"52",
"74",
"70",
"87",
"77",
"63",
"70",
"80",
"62",
"79",
"85",
"83",
"69",
"65",
"67",
"83",
"70",
"64",
"72",
"57",
"61",
"62",
"63",
"56",
"72",
"72",
"69",
"70",
"62",
"72",
"61",
"77",
"67",
"65",
"61",
"79",
"52",
"68",
"63",
"66",
"58",
"59",
"66",
"69",
"81",
"69",
"64",
"88",
"50",
"76",
"49",
"75",
"61",
"64",
"55",
"58",
"64",
"67",
"68",
"55",
"63",
"44",
"57",
"61",
"65",
"59",
"81",
"75",
"75",
"70",
"69",
"64",
"50",
"58",
"62",
"67",
"64",
"58",
"57",
"61",
"63",
"78",
"55",
"63",
"63",
"48",
"59",
"58",
"68",
"55",
"55",
"53",
"74",
"55",
"67",
"59",
"52",
"62",
"65",
"62",
"52",
"65",
"53",
"59",
"70",
"57",
"68",
"59",
"58",
"66",
"63",
"56",
"69",
"59",
"58",
"57",
"58",
"68",
"51",
"54",
"66",
"69",
"61",
"55",
"51",
"53",
"65",
"65",
"64",
"56",
"47",
"56",
"51",
"53",
"58",
"53",
"55",
"61",
"51",
"65",
"66",
"62",
"61",
"57",
"52",
"69",
"58",
"44",
"43",
"38",
"55",
"58",
"61",
"49",
"61",
"64",
"57",
"49",
"42",
"57",
"48",
"64",
"63",
"62",
"45",
"48",
"71",
"58",
"55",
"53",
"56",
"54",
"52",
"42",
"59",
"41",
"65",
"55",
"51",
"66",
"57",
"53",
"48",
"63",
"58",
"61",
"57",
"54",
"49",
"70",
"57",
"72",
"56",
"55",
"54",
"65",
"49",
"52",
"54",
"47",
"59",
"71",
"79",
"63",
"70",
"64",
"69",
"62",
"65",
"59",
"64",
"78",
"75",
"64",
"81",
"78",
"83",
"83",
"75",
"87",
"99",
"87",
"95",
"85",
"98",
"109",
"106",
"127",
"137",
"135",
"169",
"159",
"168",
"181",
"223",
"212",
"226",
"238",
"262",
"305",
"294",
"327",
"285",
"328",
"332",
"362",
"366",
"408",
"403",
"403",
"368",
"438",
"377",
"378",
"385",
"394",
"367",
"372",
"328",
"310",
"258",
"278",
"244",
"301",
"227",
"213",
"191",
"185",
"142",
"159",
"127",
"119",
"104",
"118",
"104",
"94",
"105",
"89",
"71",
"89",
"89",
"76",
"95",
"112",
"95",
"115",
"115",
"137",
"158",
"156",
"143",
"177",
"186",
"182",
"170",
"177",
"164",
"159",
"143",
"173",
"122",
"134",
"97",
"105",
"84",
"97",
"69",
"74",
"56",
"55",
"55",
"58",
"41",
"48",
"53",
"26954",
"Channel_info_start",
"Channel : Mg",
"Points : 0",
"Range : 0.000000 - 0.000000",
"Step : 0.010000",
"Channel_info_end",
"Channel_info_start",
"Channel : Al",
"Points : 0",
"Range : 0.000000 - 0.000000",
"Step : 0.010000",
"Channel_info_end",
"Channel_info_start",
"Channel : Si",
"Points : 0",
"Range : 0.000000 - 0.000000",
"Step : 0.010000",
"Channel_info_end",
"Channel_info_start",
"Channel : P ",
"Points : 0",
"Range : 0.000000 - 0.000000",
"Step : 0.010000",
"Channel_info_end",
"Channel_info_start",
"Channel : S ",
"Points : 0",
"Range : 0.000000 - 0.000000",
"Step : 0.010000",
"Channel_info_end",
"Channel_info_start",
"Channel : Cl",
"Points : 0",
"Range : 0.000000 - 0.000000",
"Step : 0.010000",
"Channel_info_end",
"Channel_info_start",
"Channel : K ",
"Points : 0",
"Range : 0.000000 - 0.000000",
"Step : 0.010000",
"Channel_info_end",
"Channel_info_start",
"Channel : Ca",
"Points : 0",
"Range : 0.000000 - 0.000000",
"Step : 0.010000",
"Channel_info_end",
"Channel_info_start",
"Channel : Ti",
"Points : 0",
"Range : 0.000000 - 0.000000",
"Step : 0.010000",
"Channel_info_end",
"Channel_info_start",
"Channel : V ",
"Points : 0",
"Range : 0.000000 - 0.000000",
"Step : 0.010000",
"Channel_info_end",
"Channel_info_start",
"Channel : Cr",
"Points : 0",
"Range : 0.000000 - 0.000000",
"Step : 0.010000",
"Channel_info_end",
"Channel_info_start",
"Channel : Mn",
"Points : 0",
"Range : 0.000000 - 0.000000",
"Step : 0.010000",
"Channel_info_end",
"Channel_info_start",
"Channel : Fe",
"Points : 0",
"Range : 0.000000 - 0.000000",
"Step : 0.010000",
"Channel_info_end",
"Channel_info_start",
"Channel : Cu",
"Points : 0",
"Range : 0.000000 - 0.000000",
"Step : 0.010000",
"Channel_info_end",
"Channel_info_start",
"Channel : Zn",
"Points : 0",
"Range : 0.000000 - 0.000000",
"Step : 0.010000",
"Channel_info_end",
"Channel_info_start",
"Channel : Sr",
"Points : 0",
"Range : 0.000000 - 0.000000",
"Step : 0.010000",
"Channel_info_end",
"Channel_info_start",
"Channel : Pb",
"Points : 0",
"Range : 0.000000 - 0.000000",
"Step : 0.010000",
"Channel_info_end",
"",
"Qualitative Result",
"--------------------------------------------------------------------------------",
"Element :  P , Ti, Ru",
"",
"Peak List",
"--------------------------------------------------------------------------------",
"Channel               Line        keV     Net Int.(cps/uA)",
"--------------------------------------------------------------------------------",
"Na                    P Ka         1.98     0.013",
"                      TiKaESC      2.76     0.065",
"                      ----         3.69     0.178",
"                      TiKa         4.50     9.504",
"                      TiKb         4.93     1.218",
"                      RuKa        19.15     0.134",
"                      ----        19.44     0.074",
"                      ----        20.00     0.054",
"--------------------------------------------------------------------------------",
"",
"Quantitative Result",
"--------------------------------------------------------------------------------",
"Analyte               Result             Std.Dev. Proc.-Calc. Line Intensity(cps/uA)",
"--------------------------------------------------------------------------------",
"====[No. 1 Layer]====< Layer1               >===============================",
"Layer1                   0.000 ug/cm2    -------- Flux       -------- --------",