File: inputs/edxCalibration/edx_raw/2010-06/Ti 31498.20100610234406.csv
"Sample    : Ti 31498",
"Operator  : thiago",
"Comment  : cubatao-g-policarbonato",
"Group     : kerr2007ag180cal_lt",
"Date       : 2010-06-10 23:39:53",
"",
"Mesurement Condition",
"------------------------------------------------------------------------------------",
"Instrument : 700HS2   Atmosphere : Vac.   Collimator : 10(mm)   Spin : No",
"------------------------------------------------------------------------------------",
"Analyte               TG kV   uA      FI Acq.(keV)  Anal.(keV)  Time(sec)     DT(%)",
"------------------------------------------------------------------------------------",
"Na                    Rh 50  312-Auto Al  0 - 20    0.8 - 1.2   Live -  179   15",
"",
"<Profile>",
"Channel_info_start",
"Channel : Na",
"Points : 2048",
"Range : 0.000000 - 20.48",
"Step : 0.010000",
"Channel_info_end",
"0",
"0",
"0",
"0",
"0",
"0",
"0",
"0",
"0",
"0",
"0",
"0",
"0",
"0",
"0",
"14",
"14",
"23",
"18",
"22",
"13",
"20",
"12",
"19",
"23",
"13",
"15",
"15",
"23",
"27",
"18",
"5",
"14",
"21",
"14",
"15",
"15",
"11",
"16",
"21",
"18",
"19",
"18",
"18",
"14",
"20",
"21",
"19",
"19",
"13",
"9",
"12",
"22",
"14",
"8",
"26",
"27",
"26",
"14",
"21",
"21",
"16",
"13",
"14",
"15",
"14",
"26",
"11",
"22",
"13",
"21",
"25",
"13",
"41",
"31",
"25",
"30",
"16",
"29",
"19",
"23",
"23",
"20",
"22",
"26",
"31",
"31",
"32",
"38",
"21",
"29",
"30",
"32",
"23",
"25",
"41",
"54",
"67",
"98",
"96",
"105",
"115",
"106",
"79",
"57",
"29",
"34",
"25",
"31",
"23",
"24",
"15",
"26",
"25",
"21",
"35",
"27",
"37",
"26",
"24",
"19",
"30",
"27",
"24",
"27",
"23",
"23",
"26",
"26",
"29",
"41",
"46",
"65",
"81",
"128",
"193",
"225",
"291",
"324",
"261",
"249",
"170",
"123",
"71",
"54",
"56",
"46",
"33",
"50",
"44",
"44",
"47",
"45",
"29",
"41",
"46",
"58",
"46",
"56",
"65",
"64",
"70",
"60",
"47",
"39",
"32",
"39",
"36",
"38",
"47",
"59",
"46",
"59",
"55",
"68",
"57",
"82",
"109",
"125",
"235",
"430",
"605",
"899",
"1093",
"1283",
"1202",
"1166",
"833",
"663",
"415",
"265",
"181",
"167",
"152",
"162",
"173",
"189",
"208",
"216",
"270",
"267",
"304",
"259",
"225",
"217",
"187",
"172",
"173",
"160",
"176",
"185",
"186",
"184",
"213",
"296",
"345",
"504",
"845",
"1730",
"3336",
"6901",
"11867",
"19177",
"26068",
"34116",
"36310",
"36188",
"31613",
"24852",
"16890",
"10735",
"5850",
"2912",
"1305",
"629",
"282",
"239",
"243",
"314",
"425",
"704",
"1116",
"1761",
"2548",
"3387",
"4121",
"4586",
"4494",
"4129",
"3138",
"2319",
"1437",
"982",
"503",
"255",
"117",
"91",
"52",
"39",
"47",
"39",
"50",
"52",
"44",
"50",
"48",
"59",
"61",
"49",
"62",
"52",
"64",
"57",
"55",
"55",
"44",
"58",
"45",
"55",
"60",
"47",
"70",
"64",
"58",
"53",
"66",
"58",
"69",
"71",
"53",
"83",
"56",
"67",
"62",
"79",
"78",
"89",
"82",
"91",
"67",
"77",
"103",
"89",
"83",
"89",
"76",
"113",
"94",
"99",
"95",
"84",
"84",
"86",
"116",
"105",
"124",
"119",
"132",
"143",
"134",
"111",
"118",
"151",
"118",
"98",
"117",
"117",
"78",
"101",
"103",
"103",
"89",
"89",
"99",
"86",
"103",
"101",
"76",
"99",
"93",
"107",
"106",
"110",
"105",
"106",
"104",
"111",
"96",
"100",
"82",
"106",
"100",
"101",
"96",
"100",
"99",
"116",
"86",
"111",
"86",
"94",
"87",
"109",
"96",
"81",
"81",
"91",
"92",
"104",
"89",
"123",
"87",
"89",
"82",
"110",
"94",
"90",
"96",
"81",
"86",
"111",
"106",
"101",
"93",
"104",
"96",
"111",
"111",
"121",
"110",
"114",
"107",
"88",
"127",
"116",
"126",
"129",
"123",
"141",
"150",
"158",
"141",
"146",
"141",
"151",
"123",
"129",
"110",
"113",
"123",
"123",
"116",
"112",
"115",
"118",
"104",
"121",
"107",
"127",
"122",
"101",
"113",
"116",
"105",
"121",
"129",
"138",
"139",
"157",
"161",
"149",
"167",
"169",
"130",
"146",
"133",
"141",
"143",
"117",
"130",
"130",
"107",
"135",
"103",
"137",
"113",
"113",
"151",
"146",
"139",
"138",
"146",
"151",
"166",
"143",
"145",
"137",
"109",
"104",
"122",
"93",
"114",
"121",
"135",
"118",
"115",
"114",
"119",
"117",
"113",
"111",
"114",
"122",
"111",
"118",
"119",
"110",
"103",
"115",
"104",
"122",
"95",
"119",
"104",
"134",
"115",
"100",
"109",
"112",
"105",
"96",
"104",
"112",
"92",
"106",
"80",
"133",
"83",
"86",
"95",
"104",
"103",
"90",
"89",
"103",
"86",
"109",
"116",
"104",
"104",
"92",
"93",
"112",
"102",
"113",
"102",
"90",
"109",
"105",
"102",
"106",
"96",
"121",
"118",
"92",
"112",
"114",
"98",
"117",
"84",
"100",
"125",
"98",
"95",
"102",
"113",
"79",
"116",
"87",
"107",
"100",
"109",
"104",
"99",
"105",
"104",
"78",
"96",
"105",
"99",
"77",
"117",
"109",
"100",
"104",
"104",
"125",
"86",
"109",
"100",
"86",
"95",
"98",
"98",
"86",
"113",
"106",
"100",
"105",
"82",
"107",
"96",
"101",
"94",
"94",
"82",
"95",
"100",
"111",
"98",
"81",
"102",
"98",
"105",
"104",
"109",
"106",
"101",
"78",
"89",
"72",
"116",
"88",
"110",
"101",
"88",
"93",
"78",
"106",
"92",
"94",
"110",
"91",
"93",
"104",
"81",
"98",
"92",
"94",
"106",
"90",
"88",
"106",
"80",
"84",
"101",
"106",
"91",
"99",
"111",
"103",
"101",
"104",
"77",
"96",
"86",
"92",
"103",
"96",
"88",
"81",
"100",
"83",
"69",
"109",
"86",
"84",
"71",
"96",
"82",
"72",
"88",
"98",
"73",
"94",
"75",
"98",
"96",
"80",
"92",
"83",
"78",
"83",
"61",
"76",
"87",
"105",
"68",
"90",
"54",
"99",
"86",
"98",
"78",
"107",
"75",
"87",
"101",
"79",
"84",
"78",
"77",
"93",
"101",
"86",
"73",
"98",
"78",
"71",
"66",
"77",
"81",
"60",
"83",
"96",
"80",
"88",
"71",
"76",
"92",
"73",
"101",
"72",
"86",
"73",
"81",
"95",
"67",
"95",
"92",
"82",
"68",
"84",
"92",
"77",
"70",
"94",
"82",
"84",
"77",
"88",
"69",
"88",
"95",
"69",
"86",
"83",
"70",
"87",
"61",
"87",
"70",
"89",
"78",
"87",
"90",
"73",
"80",
"81",
"76",
"80",
"92",
"69",
"55",
"81",
"73",
"81",
"69",
"81",
"83",
"80",
"65",
"80",
"58",
"90",
"66",
"68",
"90",
"71",
"78",
"76",
"82",
"64",
"64",
"58",
"62",
"73",
"88",
"71",
"66",
"84",
"68",
"62",
"73",
"78",
"66",
"59",
"80",
"73",
"60",
"81",
"71",
"66",
"72",
"66",
"62",
"69",
"70",
"70",
"67",
"81",
"73",
"72",
"64",
"81",
"88",
"77",
"68",
"67",
"75",
"67",
"68",
"79",
"66",
"59",
"72",
"72",
"53",
"95",
"62",
"73",
"71",
"54",
"49",
"67",
"69",
"56",
"67",
"79",
"78",
"66",
"68",
"72",
"58",
"72",
"62",
"69",
"65",
"64",
"67",
"80",
"70",
"54",
"62",
"57",
"58",
"67",
"79",
"68",
"66",
"58",
"59",
"66",
"77",
"65",
"73",
"98",
"54",
"53",
"65",
"59",
"69",
"70",
"64",
"55",
"59",
"67",
"61",
"75",
"84",
"64",
"68",
"53",
"53",
"48",
"66",
"47",
"69",
"56",
"55",
"78",
"70",
"77",
"80",
"64",
"56",
"57",
"57",
"73",
"62",
"87",
"61",
"65",
"73",
"57",
"60",
"76",
"62",
"59",
"58",
"54",
"52",
"54",
"57",
"57",
"60",
"75",
"65",
"64",
"67",
"62",
"64",
"64",
"65",
"56",
"60",
"60",
"55",
"75",
"66",
"56",
"81",
"60",
"55",
"78",
"70",
"76",
"64",
"79",
"57",
"80",
"83",
"94",
"73",
"72",
"78",
"65",
"73",
"81",
"82",
"80",
"88",
"91",
"86",
"113",
"104",
"101",
"93",
"117",
"101",
"91",
"110",
"113",
"111",
"117",
"129",
"157",
"148",
"146",
"155",
"164",
"185",
"192",
"231",
"249",
"265",
"317",
"267",
"335",
"366",
"364",
"377",
"419",
"406",
"413",
"418",
"462",
"389",
"475",
"464",
"491",
"413",
"454",
"398",
"435",
"377",
"402",
"322",
"373",
"332",
"308",
"277",
"271",
"238",
"253",
"216",
"225",
"186",
"170",
"161",
"145",
"139",
"152",
"106",
"127",
"102",
"93",
"100",
"100",
"104",
"101",
"93",
"121",
"121",
"132",
"117",
"132",
"147",
"155",
"148",
"220",
"180",
"210",
"185",
"203",
"198",
"204",
"187",
"205",
"176",
"134",
"116",
"137",
"83",
"93",
"76",
"71",
"55",
"75",
"61",
"55",
"56",
"54",
"54",
"30779",
"Channel_info_start",
"Channel : Mg",
"Points : 0",
"Range : 0.000000 - 0.000000",
"Step : 0.010000",
"Channel_info_end",
"Channel_info_start",
"Channel : Al",
"Points : 0",
"Range : 0.000000 - 0.000000",
"Step : 0.010000",
"Channel_info_end",
"Channel_info_start",
"Channel : Si",
"Points : 0",
"Range : 0.000000 - 0.000000",
"Step : 0.010000",
"Channel_info_end",
"Channel_info_start",
"Channel : P ",
"Points : 0",
"Range : 0.000000 - 0.000000",
"Step : 0.010000",
"Channel_info_end",
"Channel_info_start",
"Channel : S ",
"Points : 0",
"Range : 0.000000 - 0.000000",
"Step : 0.010000",
"Channel_info_end",
"Channel_info_start",
"Channel : Cl",
"Points : 0",
"Range : 0.000000 - 0.000000",
"Step : 0.010000",
"Channel_info_end",
"Channel_info_start",
"Channel : K ",
"Points : 0",
"Range : 0.000000 - 0.000000",
"Step : 0.010000",
"Channel_info_end",
"Channel_info_start",
"Channel : Ca",
"Points : 0",
"Range : 0.000000 - 0.000000",
"Step : 0.010000",
"Channel_info_end",
"Channel_info_start",
"Channel : Ti",
"Points : 0",
"Range : 0.000000 - 0.000000",
"Step : 0.010000",
"Channel_info_end",
"Channel_info_start",
"Channel : V ",
"Points : 0",
"Range : 0.000000 - 0.000000",
"Step : 0.010000",
"Channel_info_end",
"Channel_info_start",
"Channel : Cr",
"Points : 0",
"Range : 0.000000 - 0.000000",
"Step : 0.010000",
"Channel_info_end",
"Channel_info_start",
"Channel : Mn",
"Points : 0",
"Range : 0.000000 - 0.000000",
"Step : 0.010000",
"Channel_info_end",
"Channel_info_start",
"Channel : Fe",
"Points : 0",
"Range : 0.000000 - 0.000000",
"Step : 0.010000",
"Channel_info_end",
"Channel_info_start",
"Channel : Cu",
"Points : 0",
"Range : 0.000000 - 0.000000",
"Step : 0.010000",
"Channel_info_end",
"Channel_info_start",
"Channel : Zn",
"Points : 0",
"Range : 0.000000 - 0.000000",
"Step : 0.010000",
"Channel_info_end",
"Channel_info_start",
"Channel : Sr",
"Points : 0",
"Range : 0.000000 - 0.000000",
"Step : 0.010000",
"Channel_info_end",
"Channel_info_start",
"Channel : Pb",
"Points : 0",
"Range : 0.000000 - 0.000000",
"Step : 0.010000",
"Channel_info_end",
"",
"Qualitative Result",
"--------------------------------------------------------------------------------",
"Element :  P , Ti, Ca, Rh",
"",
"Peak List",
"--------------------------------------------------------------------------------",
"Channel               Line        keV     Net Int.(cps/uA)",
"--------------------------------------------------------------------------------",
"Na                    P Ka         2.00     0.019",
"                      TiKaESC      2.76     0.067",
"                      CaKa         3.68     0.299",
"                      CaKb         4.02     0.041",
"                      TiKa         4.50     9.661",
"                      TiKb         4.92     1.206",
"                      RhKaC       19.21     0.136",
"                      ----        19.52     0.036",
"                      RhKa        20.08     0.052",
"--------------------------------------------------------------------------------",
"",
"Quantitative Result",
"--------------------------------------------------------------------------------",
"Analyte               Result             Std.Dev. Proc.-Calc. Line Intensity(cps/uA)",
"--------------------------------------------------------------------------------",
"====[No. 1 Layer]====< Layer1               >===============================",
"Layer1                   0.000 ug/cm2    -------- Flux       -------- --------",