File: inputs/edxCalibration/edx_raw/2010-06/YbF3 31518.20100526005923.csv
"Sample    : YbF3 31518",
"Operator  : luisf",
"Comment  : cubatao-g-policarbonato",
"Group     : kerr2007ag180cal_lt",
"Date       : 2010-05-26 00:55:21",
"",
"Mesurement Condition",
"------------------------------------------------------------------------------------",
"Instrument : 700HS2   Atmosphere : Vac.   Collimator : 10(mm)   Spin : No",
"------------------------------------------------------------------------------------",
"Analyte               TG kV   uA      FI Acq.(keV)  Anal.(keV)  Time(sec)     DT(%)",
"------------------------------------------------------------------------------------",
"Na                    Rh 50  237-Auto Al  0 - 20    0.8 - 1.2   Live -  180   15",
"",
"<Profile>",
"Channel_info_start",
"Channel : Na",
"Points : 2048",
"Range : 0.000000 - 20.48",
"Step : 0.010000",
"Channel_info_end",
"0",
"0",
"0",
"0",
"0",
"0",
"0",
"0",
"0",
"0",
"0",
"0",
"0",
"0",
"0",
"9",
"29",
"21",
"26",
"21",
"26",
"24",
"22",
"16",
"21",
"24",
"17",
"14",
"16",
"17",
"28",
"23",
"21",
"20",
"22",
"22",
"22",
"22",
"17",
"20",
"13",
"14",
"17",
"12",
"14",
"16",
"15",
"13",
"17",
"11",
"25",
"12",
"25",
"21",
"23",
"54",
"65",
"85",
"128",
"142",
"167",
"126",
"130",
"79",
"53",
"49",
"53",
"54",
"64",
"74",
"80",
"125",
"266",
"538",
"938",
"1475",
"2032",
"2304",
"2330",
"1931",
"1627",
"1045",
"663",
"338",
"262",
"202",
"205",
"227",
"240",
"216",
"193",
"151",
"119",
"71",
"76",
"53",
"70",
"102",
"102",
"162",
"154",
"172",
"126",
"79",
"49",
"49",
"30",
"34",
"30",
"20",
"30",
"18",
"21",
"20",
"30",
"10",
"23",
"20",
"25",
"27",
"13",
"14",
"21",
"15",
"11",
"13",
"20",
"14",
"22",
"13",
"14",
"22",
"18",
"30",
"27",
"8",
"20",
"13",
"22",
"11",
"25",
"18",
"17",
"23",
"25",
"16",
"20",
"15",
"17",
"20",
"22",
"7",
"16",
"21",
"12",
"22",
"14",
"20",
"9",
"17",
"27",
"20",
"21",
"14",
"20",
"16",
"18",
"28",
"14",
"14",
"27",
"14",
"15",
"18",
"18",
"36",
"28",
"52",
"80",
"159",
"276",
"401",
"648",
"754",
"872",
"867",
"821",
"606",
"398",
"262",
"155",
"110",
"66",
"59",
"50",
"55",
"71",
"79",
"99",
"126",
"130",
"144",
"125",
"105",
"93",
"85",
"52",
"56",
"51",
"31",
"39",
"30",
"24",
"37",
"37",
"41",
"58",
"41",
"42",
"48",
"48",
"67",
"59",
"45",
"56",
"61",
"60",
"61",
"63",
"63",
"92",
"68",
"48",
"70",
"63",
"46",
"49",
"75",
"66",
"59",
"63",
"45",
"65",
"45",
"56",
"51",
"58",
"58",
"55",
"43",
"47",
"49",
"60",
"53",
"68",
"63",
"36",
"46",
"48",
"54",
"36",
"49",
"64",
"43",
"68",
"66",
"61",
"46",
"71",
"63",
"55",
"76",
"94",
"58",
"68",
"62",
"65",
"71",
"88",
"78",
"78",
"106",
"112",
"90",
"90",
"93",
"87",
"85",
"65",
"85",
"83",
"68",
"80",
"80",
"67",
"80",
"71",
"98",
"85",
"72",
"91",
"67",
"92",
"70",
"89",
"94",
"96",
"97",
"116",
"77",
"110",
"97",
"105",
"115",
"104",
"125",
"123",
"128",
"123",
"136",
"186",
"245",
"373",
"399",
"516",
"627",
"686",
"717",
"694",
"593",
"529",
"427",
"404",
"278",
"244",
"218",
"156",
"152",
"162",
"157",
"142",
"123",
"122",
"133",
"129",
"159",
"153",
"150",
"144",
"146",
"164",
"156",
"185",
"163",
"177",
"140",
"209",
"237",
"251",
"299",
"458",
"694",
"1079",
"1863",
"3096",
"4437",
"6313",
"8340",
"10964",
"12162",
"12904",
"12771",
"12116",
"10023",
"8391",
"5985",
"4375",
"2813",
"1837",
"1161",
"816",
"526",
"415",
"331",
"240",
"207",
"212",
"137",
"171",
"166",
"156",
"163",
"175",
"139",
"136",
"149",
"159",
"160",
"197",
"176",
"259",
"281",
"317",
"373",
"421",
"461",
"522",
"596",
"638",
"707",
"953",
"1152",
"1553",
"2130",
"2999",
"3815",
"4982",
"5823",
"6795",
"7272",
"7541",
"7011",
"6531",
"5687",
"4940",
"4068",
"3195",
"2535",
"2183",
"1757",
"1581",
"1412",
"1526",
"1549",
"1727",
"1970",
"2268",
"2258",
"2323",
"2117",
"1944",
"1586",
"1261",
"936",
"743",
"524",
"419",
"350",
"262",
"235",
"203",
"173",
"149",
"165",
"146",
"133",
"124",
"129",
"147",
"153",
"175",
"185",
"214",
"215",
"226",
"275",
"263",
"297",
"300",
"287",
"262",
"263",
"240",
"222",
"210",
"228",
"210",
"207",
"257",
"267",
"332",
"388",
"478",
"602",
"785",
"821",
"1086",
"1232",
"1296",
"1215",
"1216",
"1048",
"995",
"764",
"625",
"502",
"436",
"337",
"297",
"328",
"308",
"391",
"449",
"491",
"510",
"505",
"582",
"462",
"458",
"434",
"374",
"323",
"290",
"240",
"200",
"171",
"163",
"138",
"127",
"162",
"148",
"159",
"182",
"140",
"139",
"129",
"137",
"133",
"121",
"125",
"135",
"111",
"97",
"100",
"94",
"94",
"102",
"112",
"114",
"103",
"110",
"109",
"125",
"100",
"119",
"135",
"134",
"121",
"110",
"129",
"94",
"111",
"100",
"112",
"103",
"90",
"112",
"106",
"114",
"91",
"121",
"91",
"114",
"111",
"100",
"93",
"101",
"102",
"119",
"111",
"100",
"108",
"97",
"86",
"109",
"91",
"100",
"92",
"113",
"102",
"91",
"98",
"104",
"89",
"96",
"100",
"84",
"86",
"98",
"94",
"97",
"98",
"92",
"91",
"87",
"89",
"92",
"94",
"89",
"96",
"87",
"91",
"81",
"76",
"116",
"101",
"86",
"90",
"81",
"100",
"99",
"86",
"90",
"76",
"78",
"81",
"91",
"81",
"83",
"73",
"80",
"83",
"66",
"88",
"77",
"83",
"89",
"88",
"90",
"87",
"90",
"97",
"90",
"100",
"97",
"89",
"88",
"81",
"92",
"93",
"104",
"84",
"94",
"90",
"86",
"90",
"66",
"81",
"72",
"81",
"78",
"71",
"73",
"92",
"74",
"109",
"91",
"73",
"75",
"98",
"88",
"64",
"81",
"97",
"97",
"88",
"85",
"75",
"87",
"83",
"77",
"74",
"89",
"86",
"73",
"93",
"84",
"86",
"76",
"85",
"84",
"87",
"88",
"70",
"73",
"73",
"63",
"68",
"101",
"84",
"65",
"81",
"87",
"92",
"77",
"65",
"76",
"79",
"91",
"72",
"72",
"60",
"74",
"58",
"83",
"77",
"84",
"76",
"80",
"77",
"66",
"71",
"93",
"62",
"97",
"80",
"80",
"70",
"74",
"86",
"77",
"73",
"59",
"71",
"76",
"64",
"90",
"71",
"72",
"53",
"67",
"72",
"80",
"73",
"76",
"75",
"77",
"74",
"78",
"67",
"83",
"71",
"77",
"71",
"76",
"61",
"90",
"79",
"71",
"84",
"79",
"68",
"81",
"70",
"59",
"73",
"79",
"51",
"60",
"66",
"65",
"62",
"67",
"72",
"72",
"64",
"63",
"60",
"56",
"54",
"64",
"60",
"68",
"81",
"61",
"60",
"75",
"74",
"80",
"84",
"76",
"89",
"86",
"84",
"64",
"68",
"68",
"99",
"74",
"79",
"83",
"66",
"87",
"65",
"75",
"55",
"73",
"62",
"76",
"61",
"77",
"74",
"68",
"73",
"48",
"73",
"63",
"73",
"65",
"60",
"77",
"59",
"66",
"65",
"64",
"73",
"74",
"59",
"66",
"78",
"64",
"65",
"59",
"42",
"61",
"62",
"61",
"53",
"65",
"68",
"58",
"60",
"72",
"58",
"80",
"66",
"63",
"65",
"66",
"60",
"62",
"78",
"54",
"65",
"63",
"52",
"65",
"59",
"61",
"48",
"53",
"71",
"71",
"72",
"53",
"65",
"58",
"56",
"66",
"66",
"52",
"62",
"43",
"60",
"61",
"54",
"63",
"56",
"47",
"54",
"55",
"45",
"46",
"62",
"50",
"56",
"67",
"50",
"71",
"56",
"47",
"52",
"50",
"51",
"62",
"61",
"43",
"51",
"67",
"54",
"59",
"58",
"68",
"59",
"60",
"53",
"62",
"62",
"62",
"54",
"66",
"52",
"64",
"58",
"67",
"55",
"63",
"84",
"56",
"51",
"53",
"80",
"65",
"76",
"61",
"71",
"56",
"71",
"86",
"55",
"73",
"74",
"71",
"72",
"70",
"70",
"90",
"85",
"93",
"92",
"92",
"80",
"104",
"90",
"113",
"100",
"139",
"118",
"135",
"122",
"127",
"129",
"171",
"157",
"199",
"223",
"189",
"235",
"262",
"243",
"286",
"241",
"274",
"300",
"358",
"322",
"329",
"375",
"326",
"344",
"406",
"358",
"346",
"317",
"327",
"298",
"349",
"272",
"259",
"256",
"238",
"235",
"215",
"190",
"184",
"179",
"178",
"160",
"147",
"127",
"125",
"104",
"100",
"104",
"116",
"76",
"89",
"93",
"88",
"81",
"96",
"101",
"124",
"111",
"135",
"136",
"155",
"154",
"198",
"230",
"247",
"253",
"228",
"262",
"253",
"251",
"267",
"224",
"228",
"212",
"189",
"156",
"149",
"105",
"93",
"108",
"85",
"81",
"61",
"50",
"60",
"56",
"49",
"45",
"26713",
"Channel_info_start",
"Channel : Mg",
"Points : 0",
"Range : 0.000000 - 0.000000",
"Step : 0.010000",
"Channel_info_end",
"Channel_info_start",
"Channel : Al",
"Points : 0",
"Range : 0.000000 - 0.000000",
"Step : 0.010000",
"Channel_info_end",
"Channel_info_start",
"Channel : Si",
"Points : 0",
"Range : 0.000000 - 0.000000",
"Step : 0.010000",
"Channel_info_end",
"Channel_info_start",
"Channel : P ",
"Points : 0",
"Range : 0.000000 - 0.000000",
"Step : 0.010000",
"Channel_info_end",
"Channel_info_start",
"Channel : S ",
"Points : 0",
"Range : 0.000000 - 0.000000",
"Step : 0.010000",
"Channel_info_end",
"Channel_info_start",
"Channel : Cl",
"Points : 0",
"Range : 0.000000 - 0.000000",
"Step : 0.010000",
"Channel_info_end",
"Channel_info_start",
"Channel : K ",
"Points : 0",
"Range : 0.000000 - 0.000000",
"Step : 0.010000",
"Channel_info_end",
"Channel_info_start",
"Channel : Ca",
"Points : 0",
"Range : 0.000000 - 0.000000",
"Step : 0.010000",
"Channel_info_end",
"Channel_info_start",
"Channel : Ti",
"Points : 0",
"Range : 0.000000 - 0.000000",
"Step : 0.010000",
"Channel_info_end",
"Channel_info_start",
"Channel : V ",
"Points : 0",
"Range : 0.000000 - 0.000000",
"Step : 0.010000",
"Channel_info_end",
"Channel_info_start",
"Channel : Cr",
"Points : 0",
"Range : 0.000000 - 0.000000",
"Step : 0.010000",
"Channel_info_end",
"Channel_info_start",
"Channel : Mn",
"Points : 0",
"Range : 0.000000 - 0.000000",
"Step : 0.010000",
"Channel_info_end",
"Channel_info_start",
"Channel : Fe",
"Points : 0",
"Range : 0.000000 - 0.000000",
"Step : 0.010000",
"Channel_info_end",
"Channel_info_start",
"Channel : Cu",
"Points : 0",
"Range : 0.000000 - 0.000000",
"Step : 0.010000",
"Channel_info_end",
"Channel_info_start",
"Channel : Zn",
"Points : 0",
"Range : 0.000000 - 0.000000",
"Step : 0.010000",
"Channel_info_end",
"Channel_info_start",
"Channel : Sr",
"Points : 0",
"Range : 0.000000 - 0.000000",
"Step : 0.010000",
"Channel_info_end",
"Channel_info_start",
"Channel : Pb",
"Points : 0",
"Range : 0.000000 - 0.000000",
"Step : 0.010000",
"Channel_info_end",
"",
"Qualitative Result",
"--------------------------------------------------------------------------------",
"Element :  Mg, Yb, Ta, P , Ca, Dy, Ni, Rh",
"",
"Peak List",
"--------------------------------------------------------------------------------",
"Channel               Line        keV     Net Int.(cps/uA)",
"--------------------------------------------------------------------------------",
"Na                    MgKa         1.20     0.037",
"                      YbMa         1.55     0.617",
"                      TaMa         1.76     0.059",
"                      P Ka         2.01     0.035",
"                      CaKa         3.69     0.286",
"                      CaKb         3.99     0.036",
"                      YbLL         6.54     0.154",
"                      DyLa         6.54     0.090",
"                      DyLb1        7.25     0.050",
"                      NiKa         7.40     5.143",
"                      YbLb4        8.27     0.720",
"                      YbLb1        8.40     2.987",
"                      YbLb2        8.76     0.810",
"                      TaLb1        9.34     0.059",
"                      YbLg1        9.77     0.472",
"                      YbLg2       10.11     0.153",
"                      RhKaC       19.23     0.127",
"                      RhKa        20.08     0.110",
"--------------------------------------------------------------------------------",
"",
"Quantitative Result",
"--------------------------------------------------------------------------------",
"Analyte               Result             Std.Dev. Proc.-Calc. Line Intensity(cps/uA)",
"--------------------------------------------------------------------------------",
"====[No. 1 Layer]====< Layer1               >===============================",
"Layer1                  12.101 ug/cm2    -------- Flux       -------- --------",
"Mg                      12.101 ug/cm2    -------- ********** -------- --------",