File: inputs/edxCalibration/edx_raw/2010-06/YbF9 31518.20100626153937.csv
"Sample    : YbF9 31518",
"Operator  : luis",
"Comment  : cubatao-g-policarbonato",
"Group     : kerr2007ag180cal_lt",
"Date       : 2010-06-26 15:35:34",
"",
"Mesurement Condition",
"------------------------------------------------------------------------------------",
"Instrument : 700HS2   Atmosphere : Vac.   Collimator : 10(mm)   Spin : No",
"------------------------------------------------------------------------------------",
"Analyte               TG kV   uA      FI Acq.(keV)  Anal.(keV)  Time(sec)     DT(%)",
"------------------------------------------------------------------------------------",
"Na                    Rh 50  237-Auto Al  0 - 20    0.8 - 1.2   Live -  180   14",
"",
"<Profile>",
"Channel_info_start",
"Channel : Na",
"Points : 2048",
"Range : 0.000000 - 20.48",
"Step : 0.010000",
"Channel_info_end",
"0",
"0",
"0",
"0",
"0",
"0",
"0",
"0",
"0",
"0",
"0",
"0",
"0",
"0",
"3",
"11",
"18",
"14",
"24",
"21",
"24",
"18",
"18",
"18",
"28",
"15",
"15",
"22",
"15",
"18",
"20",
"30",
"23",
"15",
"9",
"13",
"22",
"16",
"14",
"14",
"9",
"12",
"15",
"22",
"21",
"12",
"23",
"20",
"14",
"12",
"13",
"23",
"27",
"33",
"28",
"37",
"61",
"101",
"138",
"165",
"161",
"179",
"128",
"94",
"73",
"55",
"46",
"47",
"63",
"86",
"69",
"118",
"270",
"499",
"961",
"1432",
"1898",
"2322",
"2394",
"2067",
"1575",
"1111",
"689",
"388",
"250",
"173",
"213",
"217",
"240",
"254",
"225",
"161",
"136",
"69",
"73",
"65",
"85",
"94",
"103",
"123",
"136",
"136",
"153",
"92",
"60",
"50",
"37",
"34",
"25",
"29",
"24",
"21",
"22",
"18",
"23",
"30",
"24",
"18",
"18",
"21",
"15",
"15",
"15",
"25",
"15",
"11",
"21",
"13",
"14",
"10",
"16",
"17",
"17",
"28",
"18",
"17",
"16",
"17",
"21",
"20",
"26",
"17",
"35",
"18",
"28",
"26",
"16",
"15",
"20",
"23",
"14",
"20",
"26",
"16",
"12",
"22",
"12",
"17",
"22",
"21",
"23",
"15",
"24",
"20",
"23",
"20",
"13",
"21",
"12",
"14",
"17",
"21",
"21",
"20",
"20",
"23",
"36",
"61",
"85",
"143",
"266",
"376",
"591",
"756",
"840",
"873",
"811",
"610",
"404",
"270",
"172",
"97",
"61",
"46",
"54",
"65",
"60",
"77",
"111",
"103",
"124",
"124",
"125",
"123",
"113",
"71",
"54",
"31",
"49",
"25",
"27",
"36",
"30",
"29",
"43",
"43",
"45",
"34",
"53",
"43",
"62",
"52",
"51",
"60",
"41",
"58",
"39",
"55",
"71",
"62",
"51",
"53",
"61",
"71",
"41",
"74",
"56",
"51",
"64",
"65",
"49",
"54",
"55",
"63",
"39",
"42",
"45",
"62",
"48",
"41",
"42",
"47",
"53",
"51",
"49",
"52",
"47",
"42",
"37",
"59",
"51",
"42",
"61",
"58",
"63",
"58",
"51",
"62",
"45",
"62",
"67",
"65",
"52",
"60",
"63",
"58",
"75",
"69",
"76",
"87",
"96",
"90",
"101",
"103",
"98",
"91",
"86",
"99",
"89",
"77",
"85",
"92",
"72",
"78",
"72",
"85",
"72",
"77",
"65",
"98",
"81",
"96",
"83",
"84",
"99",
"101",
"93",
"112",
"92",
"97",
"106",
"102",
"85",
"101",
"116",
"123",
"114",
"142",
"162",
"144",
"159",
"262",
"320",
"363",
"486",
"524",
"639",
"701",
"690",
"617",
"573",
"431",
"385",
"314",
"261",
"208",
"168",
"140",
"160",
"124",
"129",
"141",
"132",
"145",
"138",
"151",
"156",
"151",
"150",
"155",
"135",
"156",
"153",
"151",
"159",
"180",
"166",
"203",
"210",
"302",
"420",
"655",
"990",
"1582",
"2649",
"4066",
"6154",
"7741",
"10491",
"11585",
"13035",
"12902",
"12288",
"10530",
"8605",
"6390",
"4715",
"3039",
"1982",
"1265",
"914",
"482",
"397",
"320",
"284",
"212",
"198",
"163",
"162",
"132",
"152",
"141",
"129",
"130",
"155",
"183",
"150",
"162",
"183",
"193",
"221",
"286",
"266",
"339",
"454",
"455",
"547",
"519",
"609",
"720",
"827",
"1102",
"1495",
"2077",
"2831",
"3599",
"4864",
"5656",
"6685",
"7170",
"7433",
"7162",
"6909",
"6092",
"5034",
"4102",
"3437",
"2716",
"2180",
"1778",
"1576",
"1466",
"1543",
"1552",
"1737",
"1889",
"2169",
"2178",
"2348",
"2153",
"1953",
"1622",
"1321",
"1076",
"844",
"534",
"470",
"333",
"304",
"226",
"224",
"162",
"160",
"148",
"123",
"123",
"123",
"135",
"156",
"147",
"164",
"155",
"212",
"213",
"254",
"248",
"291",
"279",
"312",
"249",
"254",
"305",
"290",
"276",
"237",
"215",
"223",
"219",
"244",
"253",
"351",
"370",
"478",
"542",
"764",
"902",
"1040",
"1157",
"1301",
"1219",
"1197",
"1081",
"1028",
"820",
"672",
"518",
"436",
"329",
"339",
"310",
"339",
"369",
"406",
"432",
"525",
"490",
"568",
"550",
"464",
"461",
"459",
"341",
"303",
"248",
"182",
"163",
"150",
"163",
"151",
"147",
"160",
"147",
"140",
"163",
"134",
"149",
"153",
"147",
"138",
"110",
"109",
"132",
"105",
"93",
"92",
"91",
"96",
"111",
"109",
"90",
"119",
"130",
"136",
"101",
"113",
"142",
"124",
"104",
"101",
"122",
"119",
"123",
"104",
"81",
"85",
"110",
"87",
"94",
"103",
"113",
"102",
"107",
"116",
"110",
"109",
"121",
"106",
"123",
"96",
"111",
"101",
"86",
"96",
"113",
"93",
"85",
"89",
"74",
"77",
"83",
"76",
"100",
"91",
"91",
"81",
"110",
"84",
"91",
"84",
"97",
"97",
"109",
"86",
"96",
"106",
"109",
"102",
"80",
"81",
"85",
"98",
"96",
"89",
"92",
"93",
"87",
"78",
"91",
"101",
"94",
"80",
"86",
"94",
"96",
"78",
"93",
"73",
"87",
"90",
"75",
"97",
"97",
"91",
"91",
"81",
"63",
"69",
"88",
"80",
"101",
"92",
"68",
"86",
"72",
"86",
"79",
"84",
"99",
"75",
"86",
"98",
"89",
"87",
"75",
"89",
"92",
"90",
"73",
"92",
"90",
"78",
"96",
"84",
"88",
"107",
"77",
"69",
"73",
"80",
"80",
"75",
"88",
"85",
"78",
"87",
"84",
"76",
"69",
"83",
"86",
"79",
"75",
"79",
"79",
"97",
"81",
"80",
"76",
"85",
"92",
"60",
"80",
"77",
"67",
"92",
"87",
"78",
"85",
"106",
"72",
"81",
"79",
"77",
"69",
"87",
"86",
"77",
"86",
"81",
"89",
"75",
"73",
"74",
"68",
"81",
"86",
"91",
"84",
"84",
"65",
"63",
"74",
"68",
"65",
"63",
"100",
"87",
"77",
"90",
"79",
"66",
"72",
"72",
"68",
"88",
"55",
"83",
"71",
"84",
"62",
"74",
"62",
"85",
"77",
"64",
"83",
"83",
"86",
"72",
"73",
"74",
"71",
"75",
"80",
"81",
"73",
"73",
"83",
"83",
"73",
"78",
"69",
"76",
"86",
"72",
"73",
"72",
"73",
"76",
"73",
"71",
"73",
"49",
"69",
"64",
"64",
"61",
"55",
"87",
"74",
"71",
"68",
"68",
"59",
"60",
"79",
"61",
"71",
"75",
"76",
"65",
"59",
"66",
"77",
"66",
"71",
"72",
"76",
"73",
"76",
"64",
"69",
"68",
"93",
"72",
"56",
"66",
"83",
"78",
"65",
"77",
"50",
"61",
"71",
"72",
"69",
"60",
"55",
"66",
"66",
"64",
"73",
"62",
"74",
"78",
"52",
"78",
"62",
"60",
"58",
"60",
"54",
"56",
"74",
"45",
"54",
"72",
"56",
"60",
"55",
"56",
"62",
"58",
"59",
"63",
"73",
"61",
"55",
"61",
"61",
"71",
"55",
"68",
"79",
"64",
"54",
"41",
"62",
"67",
"60",
"58",
"67",
"53",
"50",
"60",
"59",
"51",
"46",
"63",
"56",
"50",
"62",
"67",
"48",
"73",
"54",
"54",
"60",
"48",
"80",
"66",
"52",
"47",
"65",
"68",
"46",
"58",
"69",
"47",
"67",
"71",
"55",
"54",
"64",
"67",
"54",
"68",
"67",
"56",
"66",
"60",
"51",
"40",
"64",
"61",
"52",
"63",
"60",
"66",
"63",
"71",
"54",
"60",
"45",
"63",
"45",
"72",
"60",
"49",
"85",
"65",
"46",
"79",
"76",
"61",
"54",
"63",
"66",
"74",
"60",
"72",
"59",
"72",
"76",
"75",
"87",
"80",
"92",
"64",
"94",
"106",
"94",
"76",
"77",
"96",
"96",
"105",
"129",
"121",
"135",
"144",
"166",
"190",
"154",
"194",
"177",
"198",
"221",
"250",
"262",
"289",
"271",
"315",
"325",
"357",
"332",
"337",
"377",
"366",
"333",
"396",
"340",
"355",
"331",
"394",
"373",
"360",
"328",
"317",
"256",
"284",
"232",
"233",
"219",
"190",
"190",
"183",
"149",
"163",
"137",
"160",
"117",
"103",
"102",
"116",
"75",
"101",
"88",
"74",
"62",
"110",
"93",
"124",
"109",
"129",
"154",
"169",
"172",
"210",
"215",
"237",
"233",
"283",
"281",
"249",
"262",
"264",
"268",
"250",
"221",
"207",
"176",
"132",
"127",
"116",
"107",
"83",
"92",
"79",
"63",
"72",
"64",
"46",
"59",
"26836",
"Channel_info_start",
"Channel : Mg",
"Points : 0",
"Range : 0.000000 - 0.000000",
"Step : 0.010000",
"Channel_info_end",
"Channel_info_start",
"Channel : Al",
"Points : 0",
"Range : 0.000000 - 0.000000",
"Step : 0.010000",
"Channel_info_end",
"Channel_info_start",
"Channel : Si",
"Points : 0",
"Range : 0.000000 - 0.000000",
"Step : 0.010000",
"Channel_info_end",
"Channel_info_start",
"Channel : P ",
"Points : 0",
"Range : 0.000000 - 0.000000",
"Step : 0.010000",
"Channel_info_end",
"Channel_info_start",
"Channel : S ",
"Points : 0",
"Range : 0.000000 - 0.000000",
"Step : 0.010000",
"Channel_info_end",
"Channel_info_start",
"Channel : Cl",
"Points : 0",
"Range : 0.000000 - 0.000000",
"Step : 0.010000",
"Channel_info_end",
"Channel_info_start",
"Channel : K ",
"Points : 0",
"Range : 0.000000 - 0.000000",
"Step : 0.010000",
"Channel_info_end",
"Channel_info_start",
"Channel : Ca",
"Points : 0",
"Range : 0.000000 - 0.000000",
"Step : 0.010000",
"Channel_info_end",
"Channel_info_start",
"Channel : Ti",
"Points : 0",
"Range : 0.000000 - 0.000000",
"Step : 0.010000",
"Channel_info_end",
"Channel_info_start",
"Channel : V ",
"Points : 0",
"Range : 0.000000 - 0.000000",
"Step : 0.010000",
"Channel_info_end",
"Channel_info_start",
"Channel : Cr",
"Points : 0",
"Range : 0.000000 - 0.000000",
"Step : 0.010000",
"Channel_info_end",
"Channel_info_start",
"Channel : Mn",
"Points : 0",
"Range : 0.000000 - 0.000000",
"Step : 0.010000",
"Channel_info_end",
"Channel_info_start",
"Channel : Fe",
"Points : 0",
"Range : 0.000000 - 0.000000",
"Step : 0.010000",
"Channel_info_end",
"Channel_info_start",
"Channel : Cu",
"Points : 0",
"Range : 0.000000 - 0.000000",
"Step : 0.010000",
"Channel_info_end",
"Channel_info_start",
"Channel : Zn",
"Points : 0",
"Range : 0.000000 - 0.000000",
"Step : 0.010000",
"Channel_info_end",
"Channel_info_start",
"Channel : Sr",
"Points : 0",
"Range : 0.000000 - 0.000000",
"Step : 0.010000",
"Channel_info_end",
"Channel_info_start",
"Channel : Pb",
"Points : 0",
"Range : 0.000000 - 0.000000",
"Step : 0.010000",
"Channel_info_end",
"",
"Qualitative Result",
"--------------------------------------------------------------------------------",
"Element :  Mg, Yb, Ta, P , Ca, Dy, Ni, Cu, Ru",
"",
"Peak List",
"--------------------------------------------------------------------------------",
"Channel               Line        keV     Net Int.(cps/uA)",
"--------------------------------------------------------------------------------",
"Na                    MgKa         1.20     0.037",
"                      YbMa         1.56     0.636",
"                      TaMa         1.76     0.059",
"                      P Ka         2.00     0.037",
"                      CaKa         3.69     0.279",
"                      CaKb         4.03     0.033",
"                      YbLL         6.55     0.154",
"                      DyLa         6.55     0.064",
"                      NiKa         7.41     5.118",
"                      TaLa         8.10     0.071",
"                      YbLb4        8.27     0.716",
"                      YbLb1        8.40     2.916",
"                      YbLb2        8.76     0.829",
"                      CuKb         8.91     0.011",
"                      TaLb1        9.33     0.050",
"                      YbLg1        9.76     0.472",
"                      YbLg2       10.12     0.162",
"                      RuKa        19.20     0.141",
"                      ----        19.52     0.041",
"                      ----        19.97     0.074",
"--------------------------------------------------------------------------------",
"",
"Quantitative Result",
"--------------------------------------------------------------------------------",
"Analyte               Result             Std.Dev. Proc.-Calc. Line Intensity(cps/uA)",
"--------------------------------------------------------------------------------",
"====[No. 1 Layer]====< Layer1               >===============================",
"Layer1                  12.180 ug/cm2    -------- Flux       -------- --------",
"Mg                      12.180 ug/cm2    -------- ********** -------- --------",