File: inputs/edxCalibration/edx_raw/2010-06/YF3 15762.20100525231721.csv
"Sample    : YF3 15762",
"Operator  : luisf",
"Comment  : cubatao-g-policarbonato",
"Group     : kerr2007ag180cal_lt",
"Date       : 2010-05-25 23:13:20",
"",
"Mesurement Condition",
"------------------------------------------------------------------------------------",
"Instrument : 700HS2   Atmosphere : Vac.   Collimator : 10(mm)   Spin : No",
"------------------------------------------------------------------------------------",
"Analyte               TG kV   uA      FI Acq.(keV)  Anal.(keV)  Time(sec)     DT(%)",
"------------------------------------------------------------------------------------",
"Na                    Rh 50  237-Auto Al  0 - 20    0.8 - 1.2   Live -  179   14",
"",
"<Profile>",
"Channel_info_start",
"Channel : Na",
"Points : 2048",
"Range : 0.000000 - 20.48",
"Step : 0.010000",
"Channel_info_end",
"0",
"0",
"0",
"0",
"0",
"0",
"0",
"0",
"0",
"0",
"0",
"0",
"0",
"0",
"1",
"13",
"32",
"29",
"37",
"37",
"36",
"37",
"39",
"36",
"37",
"28",
"36",
"38",
"38",
"39",
"40",
"40",
"47",
"32",
"24",
"36",
"43",
"42",
"29",
"35",
"42",
"42",
"39",
"33",
"33",
"23",
"36",
"28",
"27",
"27",
"26",
"25",
"25",
"38",
"20",
"24",
"25",
"26",
"14",
"24",
"23",
"25",
"20",
"24",
"24",
"26",
"26",
"23",
"33",
"27",
"24",
"25",
"27",
"24",
"33",
"29",
"42",
"36",
"53",
"57",
"82",
"96",
"140",
"152",
"169",
"189",
"202",
"214",
"203",
"189",
"248",
"327",
"490",
"765",
"1192",
"1587",
"1931",
"1940",
"1903",
"1703",
"1497",
"1098",
"961",
"650",
"449",
"281",
"242",
"127",
"78",
"71",
"46",
"33",
"30",
"25",
"42",
"36",
"46",
"44",
"38",
"32",
"36",
"17",
"26",
"15",
"18",
"14",
"15",
"14",
"17",
"12",
"17",
"17",
"13",
"14",
"18",
"17",
"18",
"10",
"16",
"17",
"18",
"17",
"22",
"16",
"17",
"16",
"22",
"16",
"19",
"13",
"12",
"15",
"19",
"19",
"16",
"10",
"18",
"15",
"20",
"19",
"15",
"14",
"17",
"15",
"16",
"13",
"8",
"20",
"12",
"13",
"27",
"37",
"18",
"19",
"23",
"26",
"39",
"50",
"72",
"97",
"184",
"256",
"378",
"474",
"510",
"524",
"445",
"389",
"251",
"165",
"106",
"72",
"53",
"49",
"58",
"50",
"50",
"59",
"85",
"82",
"96",
"97",
"80",
"77",
"73",
"50",
"46",
"35",
"31",
"32",
"35",
"20",
"28",
"25",
"35",
"44",
"36",
"28",
"47",
"28",
"53",
"45",
"45",
"44",
"54",
"61",
"47",
"45",
"54",
"54",
"59",
"58",
"47",
"49",
"55",
"36",
"40",
"39",
"30",
"51",
"41",
"38",
"49",
"45",
"49",
"45",
"40",
"39",
"33",
"50",
"33",
"49",
"37",
"54",
"37",
"42",
"42",
"37",
"42",
"25",
"32",
"44",
"40",
"40",
"40",
"55",
"63",
"51",
"53",
"53",
"46",
"47",
"65",
"41",
"45",
"46",
"56",
"37",
"55",
"64",
"36",
"57",
"56",
"57",
"46",
"56",
"55",
"47",
"64",
"53",
"66",
"52",
"55",
"59",
"65",
"67",
"61",
"72",
"70",
"67",
"77",
"63",
"70",
"60",
"60",
"68",
"83",
"74",
"74",
"73",
"71",
"78",
"75",
"91",
"86",
"84",
"83",
"86",
"104",
"86",
"84",
"73",
"90",
"78",
"96",
"70",
"84",
"91",
"84",
"87",
"84",
"91",
"88",
"82",
"79",
"85",
"99",
"102",
"88",
"90",
"87",
"113",
"88",
"99",
"97",
"71",
"93",
"78",
"91",
"71",
"101",
"74",
"96",
"92",
"92",
"90",
"85",
"83",
"94",
"92",
"83",
"93",
"82",
"70",
"93",
"96",
"86",
"85",
"110",
"93",
"102",
"91",
"113",
"96",
"94",
"115",
"79",
"95",
"92",
"93",
"104",
"82",
"82",
"97",
"84",
"80",
"86",
"93",
"115",
"93",
"113",
"92",
"99",
"90",
"114",
"97",
"102",
"114",
"118",
"129",
"126",
"138",
"132",
"135",
"136",
"123",
"132",
"123",
"141",
"116",
"124",
"96",
"104",
"104",
"73",
"93",
"86",
"96",
"78",
"87",
"108",
"88",
"93",
"104",
"104",
"90",
"112",
"141",
"119",
"130",
"152",
"157",
"129",
"147",
"107",
"120",
"137",
"106",
"109",
"110",
"100",
"95",
"110",
"90",
"107",
"106",
"108",
"101",
"107",
"111",
"101",
"86",
"87",
"93",
"101",
"100",
"72",
"111",
"92",
"97",
"94",
"97",
"95",
"115",
"102",
"100",
"96",
"106",
"105",
"91",
"101",
"86",
"80",
"95",
"79",
"88",
"93",
"97",
"93",
"80",
"108",
"93",
"94",
"87",
"93",
"98",
"94",
"95",
"98",
"85",
"80",
"77",
"79",
"90",
"77",
"106",
"98",
"69",
"91",
"80",
"98",
"90",
"77",
"87",
"96",
"72",
"80",
"85",
"114",
"82",
"97",
"87",
"83",
"85",
"105",
"86",
"98",
"79",
"83",
"79",
"81",
"91",
"80",
"74",
"97",
"90",
"78",
"94",
"83",
"84",
"106",
"95",
"73",
"107",
"97",
"83",
"100",
"94",
"106",
"96",
"105",
"98",
"93",
"86",
"88",
"79",
"82",
"92",
"101",
"94",
"90",
"86",
"93",
"82",
"82",
"85",
"80",
"84",
"94",
"90",
"111",
"75",
"78",
"78",
"109",
"84",
"79",
"60",
"104",
"80",
"90",
"73",
"70",
"85",
"63",
"93",
"80",
"74",
"81",
"93",
"80",
"65",
"84",
"91",
"80",
"57",
"91",
"81",
"90",
"71",
"81",
"80",
"78",
"90",
"75",
"71",
"72",
"83",
"85",
"75",
"84",
"77",
"73",
"83",
"83",
"71",
"81",
"86",
"85",
"84",
"86",
"77",
"58",
"86",
"73",
"64",
"68",
"72",
"82",
"78",
"74",
"80",
"73",
"73",
"67",
"75",
"73",
"74",
"73",
"68",
"88",
"90",
"102",
"66",
"74",
"69",
"81",
"80",
"60",
"73",
"95",
"85",
"91",
"73",
"78",
"84",
"78",
"60",
"63",
"85",
"93",
"95",
"71",
"99",
"84",
"85",
"80",
"79",
"75",
"70",
"106",
"71",
"91",
"64",
"61",
"72",
"61",
"82",
"78",
"67",
"84",
"75",
"80",
"68",
"61",
"72",
"78",
"80",
"72",
"56",
"68",
"92",
"63",
"71",
"69",
"64",
"77",
"93",
"85",
"75",
"79",
"78",
"79",
"77",
"67",
"73",
"67",
"90",
"70",
"82",
"77",
"70",
"87",
"70",
"68",
"81",
"77",
"97",
"80",
"87",
"82",
"91",
"69",
"95",
"84",
"78",
"102",
"96",
"98",
"97",
"98",
"109",
"110",
"118",
"100",
"126",
"135",
"124",
"181",
"228",
"302",
"438",
"655",
"968",
"1365",
"1935",
"2962",
"3914",
"5159",
"6500",
"8440",
"9508",
"11467",
"12656",
"13728",
"13968",
"14592",
"14134",
"13992",
"12001",
"11127",
"9311",
"8397",
"6056",
"5075",
"3707",
"2885",
"1826",
"1316",
"858",
"587",
"352",
"235",
"157",
"136",
"124",
"97",
"86",
"115",
"93",
"73",
"79",
"67",
"78",
"81",
"78",
"72",
"72",
"73",
"71",
"64",
"68",
"72",
"58",
"59",
"63",
"77",
"63",
"70",
"66",
"63",
"83",
"88",
"70",
"73",
"73",
"87",
"71",
"63",
"75",
"82",
"71",
"71",
"87",
"78",
"73",
"61",
"104",
"86",
"75",
"91",
"83",
"77",
"90",
"95",
"97",
"99",
"85",
"94",
"125",
"126",
"142",
"167",
"237",
"314",
"408",
"600",
"739",
"967",
"1107",
"1441",
"1617",
"1942",
"1976",
"2240",
"2420",
"2303",
"2180",
"2246",
"2035",
"1862",
"1615",
"1420",
"1203",
"1099",
"821",
"726",
"659",
"620",
"464",
"449",
"412",
"427",
"362",
"326",
"258",
"232",
"217",
"173",
"125",
"122",
"79",
"98",
"59",
"61",
"51",
"73",
"41",
"59",
"54",
"53",
"45",
"42",
"53",
"54",
"60",
"54",
"50",
"46",
"31",
"56",
"46",
"55",
"45",
"61",
"42",
"44",
"50",
"57",
"39",
"58",
"54",
"58",
"39",
"57",
"47",
"56",
"44",
"44",
"42",
"42",
"36",
"58",
"49",
"59",
"65",
"43",
"54",
"53",
"70",
"52",
"51",
"61",
"38",
"67",
"47",
"66",
"58",
"69",
"70",
"60",
"72",
"80",
"68",
"74",
"59",
"77",
"91",
"90",
"83",
"74",
"86",
"99",
"82",
"94",
"86",
"104",
"113",
"112",
"124",
"139",
"154",
"188",
"182",
"187",
"192",
"233",
"182",
"231",
"263",
"253",
"291",
"333",
"302",
"314",
"336",
"348",
"326",
"352",
"332",
"386",
"317",
"285",
"308",
"322",
"338",
"287",
"233",
"270",
"256",
"212",
"220",
"223",
"188",
"179",
"183",
"171",
"147",
"124",
"144",
"107",
"110",
"122",
"99",
"78",
"84",
"73",
"79",
"83",
"80",
"66",
"74",
"80",
"71",
"111",
"82",
"111",
"118",
"143",
"137",
"130",
"139",
"168",
"167",
"174",
"153",
"180",
"139",
"141",
"153",
"120",
"118",
"105",
"85",
"91",
"69",
"75",
"57",
"49",
"44",
"63",
"46",
"43",
"52",
"25631",
"Channel_info_start",
"Channel : Mg",
"Points : 0",
"Range : 0.000000 - 0.000000",
"Step : 0.010000",
"Channel_info_end",
"Channel_info_start",
"Channel : Al",
"Points : 0",
"Range : 0.000000 - 0.000000",
"Step : 0.010000",
"Channel_info_end",
"Channel_info_start",
"Channel : Si",
"Points : 0",
"Range : 0.000000 - 0.000000",
"Step : 0.010000",
"Channel_info_end",
"Channel_info_start",
"Channel : P ",
"Points : 0",
"Range : 0.000000 - 0.000000",
"Step : 0.010000",
"Channel_info_end",
"Channel_info_start",
"Channel : S ",
"Points : 0",
"Range : 0.000000 - 0.000000",
"Step : 0.010000",
"Channel_info_end",
"Channel_info_start",
"Channel : Cl",
"Points : 0",
"Range : 0.000000 - 0.000000",
"Step : 0.010000",
"Channel_info_end",
"Channel_info_start",
"Channel : K ",
"Points : 0",
"Range : 0.000000 - 0.000000",
"Step : 0.010000",
"Channel_info_end",
"Channel_info_start",
"Channel : Ca",
"Points : 0",
"Range : 0.000000 - 0.000000",
"Step : 0.010000",
"Channel_info_end",
"Channel_info_start",
"Channel : Ti",
"Points : 0",
"Range : 0.000000 - 0.000000",
"Step : 0.010000",
"Channel_info_end",
"Channel_info_start",
"Channel : V ",
"Points : 0",
"Range : 0.000000 - 0.000000",
"Step : 0.010000",
"Channel_info_end",
"Channel_info_start",
"Channel : Cr",
"Points : 0",
"Range : 0.000000 - 0.000000",
"Step : 0.010000",
"Channel_info_end",
"Channel_info_start",
"Channel : Mn",
"Points : 0",
"Range : 0.000000 - 0.000000",
"Step : 0.010000",
"Channel_info_end",
"Channel_info_start",
"Channel : Fe",
"Points : 0",
"Range : 0.000000 - 0.000000",
"Step : 0.010000",
"Channel_info_end",
"Channel_info_start",
"Channel : Cu",
"Points : 0",
"Range : 0.000000 - 0.000000",
"Step : 0.010000",
"Channel_info_end",
"Channel_info_start",
"Channel : Zn",
"Points : 0",
"Range : 0.000000 - 0.000000",
"Step : 0.010000",
"Channel_info_end",
"Channel_info_start",
"Channel : Sr",
"Points : 0",
"Range : 0.000000 - 0.000000",
"Step : 0.010000",
"Channel_info_end",
"Channel_info_start",
"Channel : Pb",
"Points : 0",
"Range : 0.000000 - 0.000000",
"Step : 0.010000",
"Channel_info_end",
"",
"Qualitative Result",
"--------------------------------------------------------------------------------",
"Element :  Si, Y , Ca, Rh",
"",
"Peak List",
"--------------------------------------------------------------------------------",
"Channel               Line        keV     Net Int.(cps/uA)",
"--------------------------------------------------------------------------------",
"Na                    SiKa         1.71     0.047",
"                      Y La         1.94     0.542",
"                      CaKa         3.69     0.166",
"                      CaKb         4.00     0.024",
"                      Y Ka        14.92     7.140",
"                      Y Kb        16.70     1.152",
"                      ----        17.09     0.102",
"                      RhKaC       19.19     0.127",
"                      ----        19.42     0.066",
"                      RhKa        20.05     0.062",
"--------------------------------------------------------------------------------",
"",
"Quantitative Result",
"--------------------------------------------------------------------------------",
"Analyte               Result             Std.Dev. Proc.-Calc. Line Intensity(cps/uA)",
"--------------------------------------------------------------------------------",
"====[No. 1 Layer]====< Layer1               >===============================",
"Layer1                   0.000 ug/cm2    -------- Flux       -------- --------",