File: inputs/edxCalibration/edx_raw/2010-06/YF3 15762.20100611021102.csv
"Sample    : YF3 15762",
"Operator  : Luís",
"Comment  : cubatao-g-policarbonato",
"Group     : kerr2007ag180cal_lt",
"Date       : 2010-06-11 02:07:00",
"",
"Mesurement Condition",
"------------------------------------------------------------------------------------",
"Instrument : 700HS2   Atmosphere : Vac.   Collimator : 10(mm)   Spin : No",
"------------------------------------------------------------------------------------",
"Analyte               TG kV   uA      FI Acq.(keV)  Anal.(keV)  Time(sec)     DT(%)",
"------------------------------------------------------------------------------------",
"Na                    Rh 50  237-Auto Al  0 - 20    0.8 - 1.2   Live -  179   14",
"",
"<Profile>",
"Channel_info_start",
"Channel : Na",
"Points : 2048",
"Range : 0.000000 - 20.48",
"Step : 0.010000",
"Channel_info_end",
"0",
"0",
"0",
"0",
"0",
"0",
"0",
"0",
"0",
"0",
"0",
"0",
"0",
"0",
"0",
"16",
"37",
"39",
"29",
"29",
"46",
"30",
"29",
"20",
"37",
"43",
"31",
"43",
"27",
"44",
"38",
"44",
"35",
"44",
"37",
"30",
"30",
"47",
"46",
"43",
"41",
"39",
"54",
"37",
"30",
"36",
"24",
"35",
"41",
"32",
"33",
"24",
"33",
"37",
"31",
"23",
"22",
"27",
"24",
"19",
"22",
"29",
"31",
"32",
"22",
"23",
"19",
"20",
"37",
"28",
"16",
"31",
"41",
"37",
"32",
"41",
"37",
"52",
"47",
"38",
"60",
"96",
"141",
"161",
"204",
"216",
"222",
"204",
"222",
"192",
"261",
"304",
"490",
"786",
"1189",
"1667",
"1900",
"1997",
"1873",
"1735",
"1431",
"1191",
"943",
"633",
"488",
"303",
"215",
"165",
"84",
"54",
"43",
"44",
"37",
"27",
"30",
"49",
"43",
"30",
"37",
"19",
"31",
"18",
"14",
"22",
"19",
"22",
"19",
"17",
"13",
"11",
"10",
"17",
"16",
"14",
"17",
"22",
"23",
"16",
"12",
"19",
"23",
"23",
"19",
"19",
"10",
"20",
"13",
"16",
"13",
"13",
"20",
"20",
"14",
"15",
"10",
"10",
"15",
"25",
"17",
"19",
"13",
"17",
"18",
"12",
"19",
"12",
"16",
"18",
"11",
"27",
"15",
"23",
"23",
"23",
"18",
"24",
"38",
"33",
"80",
"122",
"216",
"238",
"399",
"469",
"549",
"547",
"485",
"373",
"235",
"150",
"85",
"66",
"47",
"59",
"47",
"56",
"46",
"56",
"66",
"87",
"88",
"83",
"78",
"58",
"55",
"53",
"38",
"29",
"28",
"26",
"29",
"27",
"28",
"27",
"31",
"26",
"31",
"39",
"33",
"51",
"50",
"39",
"52",
"53",
"45",
"56",
"43",
"57",
"67",
"65",
"52",
"60",
"52",
"42",
"55",
"54",
"60",
"53",
"46",
"39",
"41",
"41",
"43",
"44",
"41",
"45",
"41",
"29",
"32",
"38",
"50",
"39",
"54",
"38",
"42",
"42",
"31",
"43",
"40",
"39",
"37",
"37",
"54",
"43",
"49",
"56",
"46",
"44",
"53",
"41",
"55",
"54",
"45",
"53",
"51",
"36",
"36",
"46",
"51",
"56",
"38",
"56",
"55",
"54",
"58",
"50",
"46",
"53",
"56",
"59",
"65",
"49",
"55",
"63",
"71",
"42",
"56",
"70",
"63",
"56",
"69",
"69",
"83",
"58",
"67",
"68",
"93",
"78",
"77",
"75",
"75",
"67",
"79",
"74",
"78",
"95",
"79",
"101",
"85",
"91",
"94",
"86",
"82",
"80",
"66",
"106",
"78",
"79",
"78",
"86",
"79",
"89",
"110",
"91",
"98",
"82",
"96",
"100",
"97",
"105",
"77",
"80",
"91",
"92",
"81",
"85",
"94",
"86",
"88",
"95",
"72",
"96",
"98",
"88",
"100",
"85",
"98",
"109",
"94",
"88",
"109",
"95",
"80",
"93",
"79",
"80",
"86",
"92",
"102",
"97",
"80",
"86",
"115",
"86",
"101",
"112",
"94",
"70",
"79",
"110",
"81",
"102",
"83",
"93",
"75",
"83",
"89",
"105",
"102",
"85",
"79",
"80",
"113",
"106",
"104",
"101",
"106",
"97",
"100",
"133",
"143",
"130",
"136",
"134",
"134",
"134",
"133",
"130",
"129",
"118",
"100",
"114",
"91",
"87",
"71",
"95",
"102",
"107",
"98",
"100",
"97",
"80",
"92",
"111",
"91",
"106",
"120",
"109",
"116",
"148",
"125",
"148",
"138",
"133",
"130",
"123",
"119",
"98",
"111",
"84",
"82",
"79",
"83",
"110",
"92",
"82",
"87",
"87",
"107",
"99",
"101",
"86",
"106",
"80",
"109",
"102",
"86",
"79",
"82",
"105",
"110",
"96",
"105",
"102",
"111",
"91",
"107",
"99",
"91",
"104",
"93",
"97",
"89",
"100",
"98",
"98",
"75",
"91",
"105",
"102",
"101",
"98",
"71",
"101",
"77",
"93",
"96",
"87",
"102",
"73",
"72",
"87",
"78",
"95",
"97",
"89",
"71",
"74",
"88",
"93",
"94",
"86",
"98",
"93",
"67",
"79",
"91",
"87",
"72",
"77",
"98",
"77",
"79",
"78",
"99",
"94",
"99",
"85",
"97",
"79",
"67",
"95",
"80",
"73",
"84",
"94",
"94",
"87",
"86",
"63",
"78",
"98",
"87",
"87",
"100",
"98",
"82",
"80",
"87",
"88",
"99",
"81",
"119",
"86",
"71",
"89",
"84",
"83",
"111",
"96",
"88",
"82",
"77",
"79",
"86",
"66",
"86",
"100",
"92",
"97",
"82",
"88",
"92",
"80",
"88",
"80",
"66",
"92",
"74",
"83",
"81",
"83",
"95",
"79",
"80",
"85",
"75",
"93",
"92",
"64",
"87",
"81",
"84",
"96",
"97",
"77",
"74",
"96",
"79",
"68",
"82",
"75",
"89",
"75",
"86",
"65",
"87",
"75",
"74",
"72",
"72",
"92",
"89",
"63",
"87",
"77",
"86",
"69",
"87",
"70",
"86",
"96",
"81",
"92",
"86",
"81",
"73",
"67",
"77",
"84",
"52",
"86",
"83",
"71",
"80",
"75",
"80",
"67",
"79",
"97",
"78",
"100",
"72",
"81",
"92",
"69",
"71",
"70",
"64",
"67",
"93",
"81",
"72",
"72",
"74",
"78",
"81",
"86",
"86",
"73",
"69",
"81",
"77",
"67",
"94",
"65",
"91",
"69",
"71",
"82",
"82",
"81",
"79",
"87",
"86",
"70",
"58",
"68",
"96",
"59",
"83",
"73",
"64",
"67",
"83",
"69",
"81",
"89",
"65",
"80",
"81",
"85",
"75",
"74",
"74",
"58",
"70",
"68",
"81",
"87",
"65",
"80",
"81",
"72",
"87",
"61",
"77",
"66",
"77",
"78",
"82",
"64",
"72",
"79",
"88",
"80",
"102",
"78",
"91",
"97",
"80",
"89",
"75",
"92",
"77",
"82",
"77",
"97",
"113",
"118",
"108",
"107",
"102",
"121",
"104",
"128",
"114",
"142",
"197",
"281",
"341",
"490",
"714",
"1058",
"1611",
"2249",
"3332",
"4267",
"5474",
"6931",
"8822",
"10234",
"11905",
"12802",
"14066",
"14202",
"14616",
"13655",
"13612",
"11977",
"10844",
"8979",
"7837",
"5726",
"4399",
"3263",
"2462",
"1606",
"1135",
"709",
"488",
"295",
"242",
"147",
"147",
"105",
"95",
"84",
"111",
"98",
"78",
"78",
"88",
"51",
"72",
"58",
"73",
"61",
"71",
"74",
"75",
"77",
"80",
"60",
"66",
"80",
"72",
"77",
"75",
"70",
"73",
"60",
"84",
"64",
"68",
"63",
"80",
"71",
"65",
"75",
"65",
"68",
"70",
"68",
"79",
"74",
"84",
"82",
"85",
"87",
"85",
"67",
"81",
"87",
"85",
"102",
"114",
"97",
"110",
"93",
"153",
"135",
"197",
"268",
"330",
"467",
"619",
"771",
"1069",
"1308",
"1526",
"1635",
"1964",
"2093",
"2257",
"2329",
"2323",
"2248",
"2056",
"1950",
"1772",
"1477",
"1338",
"1149",
"989",
"813",
"722",
"689",
"543",
"507",
"456",
"430",
"412",
"318",
"316",
"278",
"243",
"210",
"166",
"135",
"97",
"92",
"80",
"65",
"66",
"47",
"51",
"55",
"61",
"44",
"56",
"56",
"57",
"46",
"70",
"54",
"55",
"46",
"50",
"58",
"58",
"54",
"58",
"50",
"41",
"51",
"63",
"49",
"57",
"36",
"47",
"50",
"59",
"53",
"45",
"56",
"61",
"58",
"52",
"51",
"51",
"47",
"63",
"46",
"61",
"60",
"35",
"59",
"39",
"61",
"60",
"64",
"63",
"54",
"58",
"50",
"54",
"60",
"61",
"59",
"65",
"58",
"73",
"57",
"67",
"69",
"72",
"72",
"84",
"87",
"84",
"83",
"97",
"92",
"115",
"105",
"132",
"106",
"130",
"119",
"129",
"167",
"156",
"179",
"217",
"215",
"205",
"213",
"264",
"256",
"265",
"299",
"350",
"297",
"353",
"321",
"340",
"342",
"352",
"312",
"383",
"346",
"371",
"285",
"313",
"287",
"293",
"279",
"267",
"247",
"229",
"251",
"237",
"197",
"175",
"182",
"167",
"148",
"133",
"123",
"106",
"92",
"104",
"84",
"95",
"77",
"88",
"73",
"85",
"74",
"67",
"80",
"89",
"106",
"96",
"100",
"130",
"121",
"135",
"134",
"133",
"156",
"156",
"164",
"164",
"159",
"162",
"148",
"144",
"133",
"115",
"91",
"101",
"93",
"74",
"47",
"70",
"80",
"51",
"54",
"55",
"39",
"43",
"55",
"25652",
"Channel_info_start",
"Channel : Mg",
"Points : 0",
"Range : 0.000000 - 0.000000",
"Step : 0.010000",
"Channel_info_end",
"Channel_info_start",
"Channel : Al",
"Points : 0",
"Range : 0.000000 - 0.000000",
"Step : 0.010000",
"Channel_info_end",
"Channel_info_start",
"Channel : Si",
"Points : 0",
"Range : 0.000000 - 0.000000",
"Step : 0.010000",
"Channel_info_end",
"Channel_info_start",
"Channel : P ",
"Points : 0",
"Range : 0.000000 - 0.000000",
"Step : 0.010000",
"Channel_info_end",
"Channel_info_start",
"Channel : S ",
"Points : 0",
"Range : 0.000000 - 0.000000",
"Step : 0.010000",
"Channel_info_end",
"Channel_info_start",
"Channel : Cl",
"Points : 0",
"Range : 0.000000 - 0.000000",
"Step : 0.010000",
"Channel_info_end",
"Channel_info_start",
"Channel : K ",
"Points : 0",
"Range : 0.000000 - 0.000000",
"Step : 0.010000",
"Channel_info_end",
"Channel_info_start",
"Channel : Ca",
"Points : 0",
"Range : 0.000000 - 0.000000",
"Step : 0.010000",
"Channel_info_end",
"Channel_info_start",
"Channel : Ti",
"Points : 0",
"Range : 0.000000 - 0.000000",
"Step : 0.010000",
"Channel_info_end",
"Channel_info_start",
"Channel : V ",
"Points : 0",
"Range : 0.000000 - 0.000000",
"Step : 0.010000",
"Channel_info_end",
"Channel_info_start",
"Channel : Cr",
"Points : 0",
"Range : 0.000000 - 0.000000",
"Step : 0.010000",
"Channel_info_end",
"Channel_info_start",
"Channel : Mn",
"Points : 0",
"Range : 0.000000 - 0.000000",
"Step : 0.010000",
"Channel_info_end",
"Channel_info_start",
"Channel : Fe",
"Points : 0",
"Range : 0.000000 - 0.000000",
"Step : 0.010000",
"Channel_info_end",
"Channel_info_start",
"Channel : Cu",
"Points : 0",
"Range : 0.000000 - 0.000000",
"Step : 0.010000",
"Channel_info_end",
"Channel_info_start",
"Channel : Zn",
"Points : 0",
"Range : 0.000000 - 0.000000",
"Step : 0.010000",
"Channel_info_end",
"Channel_info_start",
"Channel : Sr",
"Points : 0",
"Range : 0.000000 - 0.000000",
"Step : 0.010000",
"Channel_info_end",
"Channel_info_start",
"Channel : Pb",
"Points : 0",
"Range : 0.000000 - 0.000000",
"Step : 0.010000",
"Channel_info_end",
"",
"Qualitative Result",
"--------------------------------------------------------------------------------",
"Element :  Si, Y , Ca, Ru",
"",
"Peak List",
"--------------------------------------------------------------------------------",
"Channel               Line        keV     Net Int.(cps/uA)",
"--------------------------------------------------------------------------------",
"Na                    SiKa         1.69     0.046",
"                      Y La         1.94     0.566",
"                      CaKa         3.69     0.178",
"                      CaKb         4.01     0.024",
"                      Y Ka        14.90     7.003",
"                      Y Kb        16.71     1.124",
"                      ----        17.13     0.064",
"                      RuKa        19.16     0.146",
"                      ----        19.41     0.079",
"                      ----        19.98     0.043",
"--------------------------------------------------------------------------------",
"",
"Quantitative Result",
"--------------------------------------------------------------------------------",
"Analyte               Result             Std.Dev. Proc.-Calc. Line Intensity(cps/uA)",
"--------------------------------------------------------------------------------",
"====[No. 1 Layer]====< Layer1               >===============================",
"Layer1                   0.000 ug/cm2    -------- Flux       -------- --------",