File: inputs/edxCalibration/edx_raw/2010-06/YF5 31506.20100611021501.csv
"Sample    : YF5 31506",
"Operator  : Luís",
"Comment  : cubatao-g-policarbonato",
"Group     : kerr2007ag180cal_lt",
"Date       : 2010-06-11 02:11:00",
"",
"Mesurement Condition",
"------------------------------------------------------------------------------------",
"Instrument : 700HS2   Atmosphere : Vac.   Collimator : 10(mm)   Spin : No",
"------------------------------------------------------------------------------------",
"Analyte               TG kV   uA      FI Acq.(keV)  Anal.(keV)  Time(sec)     DT(%)",
"------------------------------------------------------------------------------------",
"Na                    Rh 50  237-Auto Al  0 - 20    0.8 - 1.2   Live -  178   14",
"",
"<Profile>",
"Channel_info_start",
"Channel : Na",
"Points : 2048",
"Range : 0.000000 - 20.48",
"Step : 0.010000",
"Channel_info_end",
"0",
"0",
"0",
"0",
"0",
"0",
"0",
"0",
"0",
"0",
"0",
"0",
"0",
"0",
"0",
"9",
"37",
"41",
"33",
"33",
"30",
"29",
"35",
"25",
"39",
"27",
"28",
"38",
"28",
"42",
"39",
"31",
"32",
"41",
"43",
"45",
"33",
"23",
"33",
"35",
"28",
"27",
"41",
"31",
"28",
"39",
"34",
"31",
"26",
"25",
"18",
"21",
"26",
"35",
"33",
"19",
"24",
"15",
"25",
"19",
"18",
"17",
"21",
"27",
"21",
"15",
"21",
"24",
"20",
"33",
"28",
"18",
"32",
"23",
"30",
"26",
"42",
"48",
"58",
"59",
"58",
"100",
"127",
"133",
"178",
"185",
"215",
"200",
"205",
"214",
"234",
"288",
"443",
"754",
"1134",
"1447",
"1779",
"1900",
"1778",
"1542",
"1428",
"1164",
"858",
"651",
"408",
"327",
"212",
"147",
"104",
"63",
"60",
"21",
"31",
"27",
"30",
"27",
"44",
"33",
"38",
"34",
"30",
"24",
"19",
"21",
"13",
"11",
"10",
"11",
"15",
"21",
"27",
"15",
"11",
"24",
"15",
"21",
"27",
"24",
"15",
"17",
"25",
"18",
"20",
"19",
"18",
"23",
"19",
"10",
"9",
"19",
"17",
"18",
"11",
"19",
"16",
"17",
"9",
"16",
"18",
"21",
"23",
"17",
"18",
"9",
"19",
"23",
"16",
"19",
"25",
"20",
"21",
"21",
"16",
"17",
"15",
"25",
"37",
"47",
"68",
"149",
"257",
"379",
"590",
"771",
"858",
"803",
"773",
"583",
"389",
"247",
"128",
"69",
"48",
"41",
"52",
"59",
"67",
"84",
"88",
"109",
"104",
"126",
"116",
"100",
"73",
"60",
"49",
"29",
"29",
"26",
"28",
"27",
"24",
"31",
"37",
"32",
"33",
"41",
"28",
"40",
"42",
"45",
"42",
"37",
"47",
"41",
"51",
"47",
"69",
"48",
"61",
"51",
"54",
"49",
"54",
"51",
"41",
"52",
"33",
"37",
"44",
"45",
"46",
"30",
"34",
"52",
"40",
"37",
"43",
"34",
"39",
"48",
"41",
"41",
"41",
"43",
"35",
"33",
"40",
"32",
"37",
"35",
"39",
"48",
"49",
"38",
"43",
"56",
"53",
"51",
"61",
"48",
"49",
"54",
"53",
"58",
"52",
"37",
"52",
"47",
"54",
"52",
"46",
"56",
"46",
"42",
"57",
"34",
"43",
"47",
"46",
"52",
"62",
"47",
"70",
"59",
"60",
"62",
"56",
"49",
"72",
"64",
"69",
"66",
"69",
"69",
"74",
"70",
"71",
"76",
"69",
"71",
"86",
"81",
"68",
"66",
"91",
"82",
"95",
"104",
"88",
"74",
"94",
"91",
"86",
"84",
"70",
"87",
"89",
"82",
"81",
"88",
"86",
"78",
"68",
"91",
"100",
"87",
"102",
"83",
"103",
"85",
"92",
"85",
"90",
"82",
"113",
"87",
"104",
"85",
"75",
"102",
"88",
"71",
"83",
"70",
"77",
"94",
"88",
"104",
"86",
"89",
"74",
"82",
"86",
"88",
"87",
"80",
"74",
"85",
"91",
"82",
"84",
"73",
"89",
"96",
"77",
"78",
"83",
"83",
"98",
"105",
"76",
"87",
"84",
"98",
"106",
"87",
"102",
"90",
"85",
"94",
"113",
"100",
"100",
"91",
"128",
"128",
"125",
"120",
"124",
"135",
"143",
"133",
"129",
"127",
"124",
"116",
"109",
"103",
"112",
"99",
"98",
"85",
"69",
"80",
"77",
"104",
"78",
"97",
"98",
"75",
"109",
"111",
"100",
"99",
"129",
"120",
"133",
"135",
"113",
"131",
"150",
"129",
"135",
"115",
"128",
"81",
"95",
"88",
"88",
"90",
"81",
"96",
"75",
"85",
"76",
"90",
"104",
"71",
"89",
"84",
"95",
"83",
"91",
"86",
"114",
"89",
"102",
"81",
"95",
"97",
"95",
"88",
"98",
"90",
"100",
"88",
"121",
"104",
"95",
"99",
"92",
"100",
"98",
"98",
"94",
"94",
"110",
"86",
"102",
"87",
"105",
"77",
"94",
"88",
"97",
"75",
"69",
"83",
"82",
"81",
"88",
"75",
"63",
"82",
"100",
"83",
"73",
"100",
"97",
"95",
"78",
"86",
"78",
"83",
"89",
"83",
"95",
"86",
"96",
"90",
"80",
"76",
"89",
"91",
"89",
"87",
"94",
"57",
"86",
"81",
"91",
"73",
"84",
"83",
"76",
"89",
"73",
"76",
"89",
"91",
"88",
"72",
"81",
"91",
"86",
"82",
"83",
"81",
"101",
"80",
"111",
"81",
"83",
"89",
"78",
"91",
"96",
"81",
"88",
"76",
"82",
"77",
"84",
"84",
"87",
"86",
"97",
"97",
"86",
"103",
"90",
"78",
"77",
"81",
"84",
"83",
"72",
"81",
"61",
"77",
"84",
"97",
"75",
"82",
"97",
"76",
"72",
"95",
"67",
"92",
"84",
"78",
"71",
"59",
"84",
"72",
"78",
"70",
"84",
"72",
"83",
"74",
"88",
"82",
"85",
"77",
"89",
"83",
"72",
"74",
"75",
"58",
"82",
"75",
"62",
"82",
"64",
"81",
"81",
"76",
"78",
"70",
"83",
"59",
"74",
"73",
"75",
"82",
"85",
"72",
"81",
"72",
"67",
"78",
"58",
"75",
"77",
"64",
"84",
"69",
"73",
"67",
"69",
"71",
"84",
"81",
"73",
"86",
"88",
"81",
"59",
"59",
"81",
"67",
"92",
"56",
"89",
"68",
"70",
"81",
"85",
"68",
"63",
"81",
"83",
"69",
"74",
"83",
"83",
"75",
"77",
"82",
"64",
"95",
"85",
"89",
"73",
"76",
"70",
"73",
"59",
"69",
"81",
"56",
"80",
"81",
"64",
"60",
"72",
"63",
"69",
"69",
"77",
"71",
"64",
"49",
"80",
"69",
"83",
"74",
"69",
"60",
"78",
"56",
"70",
"62",
"64",
"71",
"74",
"92",
"74",
"89",
"99",
"60",
"64",
"83",
"74",
"73",
"82",
"101",
"96",
"84",
"85",
"85",
"94",
"101",
"91",
"105",
"101",
"89",
"88",
"95",
"98",
"120",
"135",
"125",
"186",
"238",
"329",
"446",
"673",
"968",
"1530",
"2155",
"3132",
"3966",
"5090",
"6557",
"8127",
"9494",
"10776",
"11811",
"13091",
"13400",
"13943",
"13050",
"12709",
"10941",
"10016",
"8417",
"7400",
"5410",
"4301",
"3142",
"2380",
"1534",
"1055",
"664",
"479",
"341",
"220",
"157",
"128",
"120",
"83",
"89",
"100",
"77",
"66",
"72",
"89",
"83",
"67",
"82",
"71",
"80",
"69",
"78",
"74",
"78",
"66",
"63",
"74",
"51",
"66",
"76",
"66",
"75",
"80",
"59",
"59",
"84",
"60",
"85",
"91",
"74",
"61",
"57",
"80",
"70",
"88",
"67",
"64",
"67",
"75",
"73",
"67",
"87",
"64",
"71",
"110",
"82",
"95",
"71",
"88",
"84",
"109",
"100",
"143",
"147",
"176",
"265",
"334",
"452",
"545",
"728",
"957",
"1119",
"1451",
"1600",
"1906",
"1859",
"2085",
"2102",
"2244",
"2055",
"2099",
"1808",
"1734",
"1385",
"1327",
"1124",
"992",
"787",
"729",
"588",
"552",
"460",
"450",
"368",
"371",
"289",
"306",
"268",
"201",
"183",
"182",
"112",
"125",
"96",
"80",
"56",
"71",
"51",
"46",
"54",
"41",
"56",
"57",
"53",
"56",
"48",
"54",
"45",
"67",
"40",
"56",
"43",
"47",
"40",
"53",
"49",
"55",
"41",
"41",
"55",
"69",
"43",
"45",
"51",
"48",
"64",
"56",
"40",
"47",
"46",
"61",
"48",
"59",
"51",
"63",
"51",
"56",
"44",
"58",
"46",
"53",
"49",
"61",
"47",
"51",
"54",
"58",
"61",
"66",
"53",
"70",
"76",
"63",
"64",
"55",
"85",
"60",
"77",
"64",
"61",
"84",
"62",
"89",
"71",
"89",
"75",
"83",
"110",
"102",
"92",
"110",
"123",
"158",
"138",
"184",
"160",
"163",
"197",
"186",
"216",
"228",
"235",
"293",
"318",
"284",
"290",
"290",
"353",
"357",
"313",
"348",
"371",
"375",
"304",
"333",
"343",
"315",
"265",
"273",
"275",
"272",
"235",
"271",
"201",
"188",
"181",
"172",
"161",
"156",
"124",
"135",
"107",
"94",
"112",
"91",
"100",
"92",
"77",
"51",
"77",
"92",
"69",
"71",
"76",
"90",
"86",
"86",
"100",
"118",
"110",
"148",
"132",
"144",
"147",
"156",
"129",
"177",
"164",
"181",
"127",
"134",
"146",
"118",
"121",
"106",
"62",
"77",
"72",
"63",
"56",
"64",
"53",
"45",
"41",
"40",
"41",
"24655",
"Channel_info_start",
"Channel : Mg",
"Points : 0",
"Range : 0.000000 - 0.000000",
"Step : 0.010000",
"Channel_info_end",
"Channel_info_start",
"Channel : Al",
"Points : 0",
"Range : 0.000000 - 0.000000",
"Step : 0.010000",
"Channel_info_end",
"Channel_info_start",
"Channel : Si",
"Points : 0",
"Range : 0.000000 - 0.000000",
"Step : 0.010000",
"Channel_info_end",
"Channel_info_start",
"Channel : P ",
"Points : 0",
"Range : 0.000000 - 0.000000",
"Step : 0.010000",
"Channel_info_end",
"Channel_info_start",
"Channel : S ",
"Points : 0",
"Range : 0.000000 - 0.000000",
"Step : 0.010000",
"Channel_info_end",
"Channel_info_start",
"Channel : Cl",
"Points : 0",
"Range : 0.000000 - 0.000000",
"Step : 0.010000",
"Channel_info_end",
"Channel_info_start",
"Channel : K ",
"Points : 0",
"Range : 0.000000 - 0.000000",
"Step : 0.010000",
"Channel_info_end",
"Channel_info_start",
"Channel : Ca",
"Points : 0",
"Range : 0.000000 - 0.000000",
"Step : 0.010000",
"Channel_info_end",
"Channel_info_start",
"Channel : Ti",
"Points : 0",
"Range : 0.000000 - 0.000000",
"Step : 0.010000",
"Channel_info_end",
"Channel_info_start",
"Channel : V ",
"Points : 0",
"Range : 0.000000 - 0.000000",
"Step : 0.010000",
"Channel_info_end",
"Channel_info_start",
"Channel : Cr",
"Points : 0",
"Range : 0.000000 - 0.000000",
"Step : 0.010000",
"Channel_info_end",
"Channel_info_start",
"Channel : Mn",
"Points : 0",
"Range : 0.000000 - 0.000000",
"Step : 0.010000",
"Channel_info_end",
"Channel_info_start",
"Channel : Fe",
"Points : 0",
"Range : 0.000000 - 0.000000",
"Step : 0.010000",
"Channel_info_end",
"Channel_info_start",
"Channel : Cu",
"Points : 0",
"Range : 0.000000 - 0.000000",
"Step : 0.010000",
"Channel_info_end",
"Channel_info_start",
"Channel : Zn",
"Points : 0",
"Range : 0.000000 - 0.000000",
"Step : 0.010000",
"Channel_info_end",
"Channel_info_start",
"Channel : Sr",
"Points : 0",
"Range : 0.000000 - 0.000000",
"Step : 0.010000",
"Channel_info_end",
"Channel_info_start",
"Channel : Pb",
"Points : 0",
"Range : 0.000000 - 0.000000",
"Step : 0.010000",
"Channel_info_end",
"",
"Qualitative Result",
"--------------------------------------------------------------------------------",
"Element :  Si, Y , Ca, Ru",
"",
"Peak List",
"--------------------------------------------------------------------------------",
"Channel               Line        keV     Net Int.(cps/uA)",
"--------------------------------------------------------------------------------",
"Na                    SiKa         1.72     0.050",
"                      Y La         1.94     0.519",
"                      CaKa         3.68     0.295",
"                      CaKb         4.02     0.036",
"                      Y Ka        14.91     6.736",
"                      Y Kb        16.72     1.092",
"                      RuKa        19.17     0.139",
"                      ----        20.00     0.047",
"--------------------------------------------------------------------------------",
"",
"Quantitative Result",
"--------------------------------------------------------------------------------",
"Analyte               Result             Std.Dev. Proc.-Calc. Line Intensity(cps/uA)",
"--------------------------------------------------------------------------------",
"====[No. 1 Layer]====< Layer1               >===============================",
"Layer1                   0.000 ug/cm2    -------- Flux       -------- --------",