File: inputs/edxCalibration/edx_raw/2010-10/sio2-15752.20101117012029.csv
"Sample    : sio2-15752",
"Operator  : Americo",
"Comment  : cal 44,7",
"Group     : kerr2007ag180cal_lt",
"Date       : 2010-11-17 01:16:16",
"",
"Mesurement Condition",
"------------------------------------------------------------------------------------",
"Instrument : 700HS2   Atmosphere : Vac.   Collimator : 10(mm)   Spin : No",
"------------------------------------------------------------------------------------",
"Analyte               TG kV   uA      FI Acq.(keV)  Anal.(keV)  Time(sec)     DT(%)",
"------------------------------------------------------------------------------------",
"Na                    Rh 50  970-Auto Al  0 - 20    0.8 - 1.2   Live -  180   15",
"",
"<Profile>",
"Channel_info_start",
"Channel : Na",
"Points : 2048",
"Range : 0.000000 - 20.48",
"Step : 0.010000",
"Channel_info_end",
"0",
"0",
"0",
"0",
"0",
"0",
"0",
"0",
"0",
"0",
"0",
"0",
"0",
"0",
"2",
"17",
"59",
"43",
"45",
"46",
"41",
"56",
"48",
"71",
"41",
"58",
"48",
"46",
"37",
"53",
"57",
"52",
"40",
"42",
"52",
"45",
"43",
"39",
"58",
"50",
"34",
"32",
"48",
"50",
"40",
"37",
"49",
"42",
"34",
"32",
"41",
"45",
"51",
"47",
"41",
"36",
"51",
"31",
"38",
"38",
"36",
"35",
"40",
"44",
"38",
"51",
"57",
"55",
"45",
"57",
"42",
"49",
"60",
"74",
"74",
"85",
"89",
"93",
"113",
"113",
"142",
"215",
"599",
"1241",
"2539",
"4092",
"5615",
"6237",
"5904",
"4824",
"3307",
"1907",
"984",
"485",
"301",
"194",
"152",
"124",
"179",
"168",
"186",
"193",
"182",
"156",
"99",
"71",
"51",
"44",
"37",
"44",
"45",
"28",
"26",
"51",
"57",
"43",
"53",
"53",
"51",
"40",
"30",
"33",
"21",
"22",
"29",
"35",
"26",
"28",
"28",
"37",
"28",
"38",
"40",
"47",
"50",
"44",
"44",
"40",
"38",
"38",
"49",
"47",
"45",
"46",
"57",
"46",
"45",
"22",
"31",
"28",
"37",
"40",
"36",
"40",
"40",
"39",
"55",
"40",
"32",
"41",
"48",
"46",
"51",
"60",
"48",
"67",
"54",
"72",
"57",
"49",
"64",
"43",
"50",
"51",
"76",
"84",
"104",
"162",
"249",
"421",
"674",
"958",
"1415",
"1787",
"1967",
"2022",
"1867",
"1406",
"1083",
"701",
"443",
"257",
"201",
"177",
"195",
"169",
"185",
"201",
"237",
"285",
"304",
"314",
"291",
"288",
"233",
"194",
"139",
"133",
"103",
"84",
"69",
"67",
"88",
"83",
"76",
"97",
"92",
"104",
"133",
"132",
"130",
"153",
"144",
"153",
"155",
"166",
"169",
"177",
"157",
"165",
"162",
"172",
"155",
"148",
"177",
"149",
"155",
"141",
"144",
"114",
"134",
"124",
"133",
"114",
"111",
"112",
"147",
"130",
"133",
"133",
"139",
"128",
"115",
"145",
"109",
"106",
"124",
"133",
"150",
"132",
"134",
"128",
"153",
"143",
"138",
"146",
"152",
"128",
"137",
"141",
"165",
"165",
"161",
"163",
"171",
"158",
"149",
"185",
"171",
"178",
"156",
"182",
"146",
"188",
"157",
"160",
"189",
"205",
"202",
"155",
"201",
"171",
"177",
"208",
"211",
"215",
"198",
"196",
"219",
"213",
"217",
"211",
"236",
"226",
"263",
"200",
"208",
"203",
"232",
"230",
"232",
"249",
"288",
"267",
"288",
"273",
"295",
"278",
"327",
"299",
"299",
"331",
"304",
"274",
"312",
"284",
"283",
"282",
"269",
"279",
"283",
"272",
"294",
"285",
"269",
"289",
"255",
"307",
"302",
"272",
"282",
"313",
"312",
"301",
"302",
"329",
"302",
"310",
"310",
"280",
"286",
"302",
"325",
"282",
"327",
"300",
"315",
"300",
"311",
"291",
"268",
"290",
"308",
"275",
"315",
"319",
"305",
"270",
"296",
"300",
"307",
"292",
"308",
"282",
"309",
"312",
"274",
"298",
"303",
"312",
"331",
"284",
"282",
"337",
"307",
"296",
"303",
"314",
"335",
"294",
"311",
"327",
"334",
"347",
"331",
"309",
"373",
"334",
"392",
"374",
"412",
"427",
"413",
"414",
"337",
"347",
"347",
"348",
"326",
"320",
"313",
"302",
"328",
"290",
"318",
"310",
"315",
"304",
"297",
"295",
"302",
"289",
"314",
"332",
"324",
"340",
"375",
"408",
"433",
"441",
"441",
"416",
"507",
"423",
"438",
"387",
"380",
"318",
"322",
"303",
"316",
"310",
"364",
"301",
"328",
"322",
"362",
"295",
"311",
"307",
"315",
"333",
"299",
"289",
"298",
"270",
"334",
"316",
"292",
"298",
"313",
"306",
"311",
"295",
"307",
"316",
"294",
"284",
"333",
"285",
"327",
"273",
"268",
"317",
"315",
"309",
"327",
"300",
"319",
"333",
"335",
"307",
"309",
"295",
"330",
"303",
"264",
"298",
"285",
"310",
"293",
"356",
"299",
"316",
"327",
"321",
"318",
"287",
"313",
"297",
"325",
"292",
"308",
"302",
"301",
"306",
"324",
"300",
"333",
"286",
"312",
"304",
"315",
"294",
"301",
"286",
"328",
"304",
"261",
"284",
"296",
"310",
"280",
"308",
"326",
"298",
"301",
"292",
"324",
"321",
"301",
"287",
"317",
"298",
"310",
"309",
"308",
"281",
"309",
"302",
"312",
"288",
"305",
"287",
"299",
"298",
"305",
"282",
"302",
"313",
"292",
"314",
"317",
"314",
"315",
"334",
"306",
"295",
"314",
"326",
"301",
"317",
"300",
"301",
"299",
"286",
"334",
"317",
"299",
"272",
"276",
"296",
"289",
"268",
"280",
"288",
"315",
"254",
"273",
"265",
"320",
"302",
"260",
"279",
"256",
"303",
"287",
"292",
"283",
"283",
"301",
"283",
"269",
"269",
"308",
"287",
"282",
"314",
"281",
"257",
"317",
"274",
"283",
"280",
"276",
"283",
"289",
"284",
"326",
"276",
"254",
"271",
"271",
"295",
"277",
"262",
"267",
"248",
"267",
"275",
"288",
"263",
"258",
"256",
"276",
"263",
"261",
"291",
"261",
"254",
"292",
"293",
"284",
"270",
"255",
"261",
"278",
"241",
"267",
"272",
"271",
"255",
"260",
"256",
"275",
"244",
"259",
"262",
"239",
"226",
"238",
"274",
"254",
"253",
"252",
"253",
"271",
"269",
"233",
"240",
"242",
"253",
"228",
"224",
"248",
"239",
"262",
"235",
"242",
"227",
"259",
"254",
"250",
"232",
"243",
"257",
"203",
"262",
"266",
"261",
"231",
"249",
"239",
"223",
"242",
"238",
"251",
"252",
"220",
"258",
"255",
"263",
"266",
"243",
"217",
"229",
"254",
"225",
"227",
"222",
"237",
"262",
"269",
"232",
"246",
"242",
"250",
"232",
"231",
"244",
"255",
"256",
"221",
"213",
"224",
"227",
"235",
"210",
"221",
"228",
"224",
"249",
"234",
"223",
"214",
"232",
"211",
"195",
"247",
"204",
"222",
"239",
"214",
"213",
"221",
"219",
"250",
"218",
"217",
"221",
"256",
"223",
"247",
"233",
"202",
"196",
"215",
"208",
"233",
"216",
"243",
"230",
"232",
"221",
"226",
"215",
"216",
"222",
"211",
"205",
"216",
"196",
"229",
"196",
"198",
"178",
"212",
"205",
"216",
"197",
"221",
"211",
"234",
"208",
"193",
"196",
"220",
"232",
"225",
"185",
"200",
"202",
"234",
"218",
"228",
"192",
"220",
"204",
"194",
"209",
"215",
"239",
"228",
"214",
"203",
"186",
"194",
"197",
"194",
"181",
"205",
"215",
"181",
"186",
"212",
"194",
"200",
"197",
"238",
"212",
"226",
"187",
"217",
"196",
"204",
"184",
"220",
"200",
"194",
"191",
"196",
"186",
"201",
"185",
"186",
"211",
"186",
"187",
"200",
"176",
"163",
"183",
"191",
"166",
"187",
"177",
"183",
"195",
"179",
"186",
"174",
"172",
"209",
"205",
"174",
"185",
"197",
"176",
"192",
"178",
"220",
"157",
"190",
"197",
"203",
"192",
"200",
"187",
"199",
"179",
"194",
"192",
"188",
"194",
"212",
"194",
"203",
"188",
"197",
"192",
"160",
"189",
"171",
"193",
"186",
"181",
"181",
"175",
"200",
"176",
"207",
"193",
"195",
"202",
"213",
"204",
"199",
"190",
"164",
"181",
"211",
"221",
"205",
"199",
"212",
"218",
"200",
"207",
"207",
"202",
"200",
"211",
"196",
"199",
"191",
"204",
"232",
"204",
"228",
"212",
"265",
"193",
"228",
"229",
"260",
"244",
"231",
"225",
"256",
"257",
"246",
"253",
"311",
"287",
"270",
"261",
"295",
"263",
"329",
"295",
"336",
"345",
"364",
"383",
"405",
"399",
"457",
"458",
"523",
"536",
"605",
"633",
"674",
"727",
"887",
"844",
"894",
"940",
"1037",
"1088",
"1161",
"1170",
"1186",
"1248",
"1365",
"1329",
"1387",
"1319",
"1472",
"1342",
"1562",
"1320",
"1296",
"1259",
"1307",
"1116",
"1158",
"1065",
"1077",
"949",
"928",
"842",
"800",
"682",
"688",
"674",
"692",
"550",
"479",
"459",
"456",
"396",
"391",
"345",
"373",
"294",
"324",
"301",
"312",
"309",
"309",
"307",
"333",
"333",
"343",
"380",
"416",
"392",
"470",
"466",
"487",
"528",
"584",
"555",
"575",
"533",
"557",
"469",
"482",
"441",
"432",
"345",
"337",
"300",
"261",
"229",
"199",
"225",
"198",
"167",
"177",
"170",
"196",
"183",
"94089",
"Channel_info_start",
"Channel : Mg",
"Points : 0",
"Range : 0.000000 - 0.000000",
"Step : 0.010000",
"Channel_info_end",
"Channel_info_start",
"Channel : Al",
"Points : 0",
"Range : 0.000000 - 0.000000",
"Step : 0.010000",
"Channel_info_end",
"Channel_info_start",
"Channel : Si",
"Points : 0",
"Range : 0.000000 - 0.000000",
"Step : 0.010000",
"Channel_info_end",
"Channel_info_start",
"Channel : P ",
"Points : 0",
"Range : 0.000000 - 0.000000",
"Step : 0.010000",
"Channel_info_end",
"Channel_info_start",
"Channel : S ",
"Points : 0",
"Range : 0.000000 - 0.000000",
"Step : 0.010000",
"Channel_info_end",
"Channel_info_start",
"Channel : Cl",
"Points : 0",
"Range : 0.000000 - 0.000000",
"Step : 0.010000",
"Channel_info_end",
"Channel_info_start",
"Channel : K ",
"Points : 0",
"Range : 0.000000 - 0.000000",
"Step : 0.010000",
"Channel_info_end",
"Channel_info_start",
"Channel : Ca",
"Points : 0",
"Range : 0.000000 - 0.000000",
"Step : 0.010000",
"Channel_info_end",
"Channel_info_start",
"Channel : Ti",
"Points : 0",
"Range : 0.000000 - 0.000000",
"Step : 0.010000",
"Channel_info_end",
"Channel_info_start",
"Channel : V ",
"Points : 0",
"Range : 0.000000 - 0.000000",
"Step : 0.010000",
"Channel_info_end",
"Channel_info_start",
"Channel : Cr",
"Points : 0",
"Range : 0.000000 - 0.000000",
"Step : 0.010000",
"Channel_info_end",
"Channel_info_start",
"Channel : Mn",
"Points : 0",
"Range : 0.000000 - 0.000000",
"Step : 0.010000",
"Channel_info_end",
"Channel_info_start",
"Channel : Fe",
"Points : 0",
"Range : 0.000000 - 0.000000",
"Step : 0.010000",
"Channel_info_end",
"Channel_info_start",
"Channel : Cu",
"Points : 0",
"Range : 0.000000 - 0.000000",
"Step : 0.010000",
"Channel_info_end",
"Channel_info_start",
"Channel : Zn",
"Points : 0",
"Range : 0.000000 - 0.000000",
"Step : 0.010000",
"Channel_info_end",
"Channel_info_start",
"Channel : Sr",
"Points : 0",
"Range : 0.000000 - 0.000000",
"Step : 0.010000",
"Channel_info_end",
"Channel_info_start",
"Channel : Pb",
"Points : 0",
"Range : 0.000000 - 0.000000",
"Step : 0.010000",
"Channel_info_end",
"",
"Qualitative Result",
"--------------------------------------------------------------------------------",
"Element :  Si, P , Ca, Ti, Ru",
"",
"Peak List",
"--------------------------------------------------------------------------------",
"Channel               Line        keV     Net Int.(cps/uA)",
"--------------------------------------------------------------------------------",
"Na                    SiKa         1.74     0.428",
"                      P Ka         2.01     0.010",
"                      CaKa         3.70     0.158",
"                      CaKb         4.02     0.020",
"                      TiKa         4.54     0.006",
"                      ----         8.64     0.020",
"                      RuKa        19.19     0.127",
"                      ----        19.52     0.033",
"--------------------------------------------------------------------------------",
"",
"Quantitative Result",
"--------------------------------------------------------------------------------",
"Analyte               Result             Std.Dev. Proc.-Calc. Line Intensity(cps/uA)",
"--------------------------------------------------------------------------------",
"====[No. 1 Layer]====< Layer1               >===============================",
"Layer1                   0.000 ug/cm2    -------- Flux       -------- --------",